File: inst/extdata/cv/cv_example3.txt
Sept. 6, 2017   14:48:45
Cyclic Voltammetry
File: cv 2 mm ferrocene gc microelectrode
Data Source:  Experiment
Instrument Model:  CHI601D
Header:
Note:

Init E (V) = 0
High E (V) = 2
Low E (V) = -2
Final E (V) = 0
Init P/N = P
Scan Rate (V/s) = 0.1
Segment = 3
Sample Interval (V) = 0.001
Quiet Time (sec) = 2
Sensitivity (A/V) = 1e-5

Potential/V, Current/A

Segment 1:
0.000, -1.698e-8
0.002, -7.773e-9
0.004, -6.537e-9
0.006, -5.654e-9
0.008, -5.046e-9
0.010, -4.831e-9
0.012, -4.468e-9
0.014, -4.125e-9
0.016, -3.850e-9
0.018, -3.438e-9
0.020, -3.291e-9
0.022, -3.085e-9
0.024, -2.575e-9
0.026, -2.595e-9
0.028, -2.379e-9
0.030, -2.271e-9
0.032, -2.095e-9
0.034, -1.722e-9
0.036, -1.800e-9
0.038, -1.457e-9
0.040, -1.143e-9
0.042, -1.104e-9
0.044, -9.767e-10
0.046, -8.198e-10
0.048, -7.806e-10
0.050, -5.550e-10
0.052, -4.962e-10
0.054, -2.805e-10
0.056, -6.472e-11
0.058, 3.334e-11
0.060, 2.197e-10
0.062, 2.491e-10
0.064, 4.158e-10
0.066, 6.413e-10
0.068, 5.825e-10
0.070, 7.394e-10
0.072, 1.073e-9
0.074, 1.004e-9
0.076, 1.269e-9
0.078, 1.328e-9
0.080, 1.377e-9
0.082, 1.534e-9
0.084, 1.671e-9
0.086, 1.789e-9
0.088, 1.995e-9
0.090, 1.946e-9
0.092, 2.259e-9
0.094, 2.289e-9
0.096, 2.357e-9
0.098, 2.612e-9
0.100, 2.544e-9
0.102, 2.514e-9
0.104, 2.887e-9
0.106, 2.828e-9
0.108, 3.220e-9
0.110, 3.328e-9
0.112, 3.269e-9
0.114, 3.662e-9
0.116, 3.564e-9
0.118, 3.652e-9
0.120, 3.838e-9
0.122, 3.838e-9
0.124, 4.152e-9
0.126, 4.181e-9
0.128, 4.338e-9
0.130, 4.535e-9
0.132, 4.554e-9
0.134, 4.662e-9
0.136, 4.907e-9
0.138, 4.819e-9
0.140, 4.946e-9
0.142, 5.064e-9
0.144, 5.290e-9
0.146, 5.486e-9
0.148, 5.447e-9
0.150, 5.652e-9
0.152, 5.849e-9
0.154, 5.760e-9
0.156, 5.947e-9
0.158, 6.025e-9
0.160, 6.123e-9
0.162, 6.476e-9
0.164, 6.309e-9
0.166, 6.594e-9
0.168, 6.682e-9
0.170, 6.564e-9
0.172, 6.967e-9
0.174, 7.045e-9
0.176, 7.045e-9
0.178, 7.280e-9
0.180, 7.182e-9
0.182, 7.378e-9
0.184, 7.751e-9
0.186, 7.643e-9
0.188, 7.947e-9
0.190, 7.947e-9
0.192, 8.104e-9
0.194, 8.388e-9
0.196, 8.290e-9
0.198, 8.388e-9
0.200, 8.751e-9
0.202, 8.742e-9
0.204, 8.889e-9
0.206, 8.849e-9
0.208, 8.869e-9
0.210, 9.320e-9
0.212, 9.124e-9
0.214, 9.428e-9
0.216, 9.722e-9
0.218, 9.575e-9
0.220, 9.879e-9
0.222, 9.958e-9
0.224, 1.009e-8
0.226, 1.035e-8
0.228, 1.024e-8
0.230, 1.031e-8
0.232, 1.065e-8
0.234, 1.051e-8
0.236, 1.078e-8
0.238, 1.105e-8
0.240, 1.101e-8
0.242, 1.122e-8
0.244, 1.118e-8
0.246, 1.133e-8
0.248, 1.162e-8
0.250, 1.168e-8
0.252, 1.175e-8
0.254, 1.187e-8
0.256, 1.181e-8
0.258, 1.220e-8
0.260, 1.211e-8
0.262, 1.224e-8
0.264, 1.256e-8
0.266, 1.240e-8
0.268, 1.263e-8
0.270, 1.281e-8
0.272, 1.282e-8
0.274, 1.308e-8
0.276, 1.314e-8
0.278, 1.329e-8
0.280, 1.343e-8
0.282, 1.338e-8
0.284, 1.349e-8
0.286, 1.363e-8
0.288, 1.378e-8
0.290, 1.390e-8
0.292, 1.389e-8
0.294, 1.396e-8
0.296, 1.419e-8
0.298, 1.423e-8
0.300, 1.433e-8
0.302, 1.446e-8
0.304, 1.455e-8
0.306, 1.473e-8
0.308, 1.451e-8
0.310, 1.481e-8
0.312, 1.502e-8
0.314, 1.500e-8
0.316, 1.515e-8
0.318, 1.520e-8
0.320, 1.529e-8
0.322, 1.548e-8
0.324, 1.534e-8
0.326, 1.563e-8
0.328, 1.576e-8
0.330, 1.570e-8
0.332, 1.593e-8
0.334, 1.597e-8
0.336, 1.595e-8
0.338, 1.621e-8
0.340, 1.617e-8
0.342, 1.640e-8
0.344, 1.655e-8
0.346, 1.647e-8
0.348, 1.667e-8
0.350, 1.667e-8
0.352, 1.685e-8
0.354, 1.708e-8
0.356, 1.693e-8
0.358, 1.711e-8
0.360, 1.735e-8
0.362, 1.726e-8
0.364, 1.741e-8
0.366, 1.753e-8
0.368, 1.757e-8
0.370, 1.773e-8
0.372, 1.778e-8
0.374, 1.786e-8
0.376, 1.820e-8
0.378, 1.815e-8
0.380, 1.828e-8
0.382, 1.828e-8
0.384, 1.848e-8
0.386, 1.875e-8
0.388, 1.864e-8
0.390, 1.886e-8
0.392, 1.915e-8
0.394, 1.884e-8
0.396, 1.917e-8
0.398, 1.944e-8
0.400, 1.941e-8
0.402, 1.988e-8
0.404, 1.969e-8
0.406, 1.989e-8
0.408, 2.014e-8
0.410, 2.003e-8
0.412, 2.028e-8
0.414, 2.036e-8
0.416, 2.059e-8
0.418, 2.096e-8
0.420, 2.083e-8
0.422, 2.118e-8
0.424, 2.134e-8
0.426, 2.125e-8
0.428, 2.139e-8
0.430, 2.175e-8
0.432, 2.176e-8
0.434, 2.228e-8
0.436, 2.230e-8
0.438, 2.244e-8
0.440, 2.291e-8
0.442, 2.276e-8
0.444, 2.296e-8
0.446, 2.318e-8
0.448, 2.332e-8
0.450, 2.365e-8
0.452, 2.363e-8
0.454, 2.396e-8
0.456, 2.427e-8
0.458, 2.423e-8
0.460, 2.448e-8
0.462, 2.466e-8
0.464, 2.485e-8
0.466, 2.524e-8
0.468, 2.514e-8
0.470, 2.550e-8
0.472, 2.575e-8
0.474, 2.588e-8
0.476, 2.618e-8
0.478, 2.633e-8
0.480, 2.654e-8
0.482, 2.694e-8
0.484, 2.696e-8
0.486, 2.715e-8
0.488, 2.760e-8
0.490, 2.766e-8
0.492, 2.811e-8
0.494, 2.829e-8
0.496, 2.846e-8
0.498, 2.890e-8
0.500, 2.890e-8
0.502, 2.940e-8
0.504, 2.975e-8
0.506, 2.995e-8
0.508, 3.013e-8
0.510, 3.056e-8
0.512, 3.064e-8
0.514, 3.121e-8
0.516, 3.145e-8
0.518, 3.182e-8
0.520, 3.242e-8
0.522, 3.253e-8
0.524, 3.301e-8
0.526, 3.345e-8
0.528, 3.377e-8
0.530, 3.434e-8
0.532, 3.464e-8
0.534, 3.515e-8
0.536, 3.576e-8
0.538, 3.592e-8
0.540, 3.670e-8
0.542, 3.708e-8
0.544, 3.765e-8
0.546, 3.835e-8
0.548, 3.857e-8
0.550, 3.938e-8
0.552, 4.011e-8
0.554, 4.049e-8
0.556, 4.134e-8
0.558, 4.198e-8
0.560, 4.263e-8
0.562, 4.380e-8
0.564, 4.451e-8
0.566, 4.534e-8
0.568, 4.660e-8
0.570, 4.759e-8
0.572, 4.868e-8
0.574, 4.992e-8
0.576, 5.125e-8
0.578, 5.274e-8
0.580, 5.383e-8
0.582, 5.555e-8
0.584, 5.742e-8
0.586, 5.892e-8
0.588, 6.099e-8
0.590, 6.278e-8
0.592, 6.442e-8
0.594, 6.679e-8
0.596, 6.949e-8
0.598, 7.283e-8
0.600, 7.616e-8
0.602, 7.922e-8
0.604, 8.261e-8
0.606, 8.601e-8
0.608, 8.977e-8
0.610, 9.417e-8
0.612, 9.857e-8
0.614, 1.034e-7
0.616, 1.089e-7
0.618, 1.135e-7
0.620, 1.196e-7
0.622, 1.264e-7
0.624, 1.333e-7
0.626, 1.405e-7
0.628, 1.485e-7
0.630, 1.574e-7
0.632, 1.665e-7
0.634, 1.768e-7
0.636, 1.876e-7
0.638, 1.988e-7
0.640, 2.110e-7
0.642, 2.250e-7
0.644, 2.391e-7
0.646, 2.545e-7
0.648, 2.716e-7
0.650, 2.888e-7
0.652, 3.085e-7
0.654, 3.294e-7
0.656, 3.520e-7
0.658, 3.765e-7
0.660, 4.013e-7
0.662, 4.291e-7
0.664, 4.597e-7
0.666, 4.914e-7
0.668, 5.251e-7
0.670, 5.615e-7
0.672, 6.016e-7
0.674, 6.428e-7
0.676, 6.847e-7
0.678, 7.336e-7
0.680, 7.858e-7
0.682, 8.377e-7
0.684, 8.955e-7
0.686, 9.552e-7
0.688, 1.021e-6
0.690, 1.092e-6
0.692, 1.161e-6
0.694, 1.240e-6
0.696, 1.324e-6
0.698, 1.408e-6
0.700, 1.501e-6
0.702, 1.593e-6
0.704, 1.694e-6
0.706, 1.801e-6
0.708, 1.905e-6
0.710, 2.021e-6
0.712, 2.141e-6
0.714, 2.260e-6
0.716, 2.389e-6
0.718, 2.511e-6
0.720, 2.647e-6
0.722, 2.791e-6
0.724, 2.931e-6
0.726, 3.077e-6
0.728, 3.224e-6
0.730, 3.370e-6
0.732, 3.526e-6
0.734, 3.671e-6
0.736, 3.825e-6
0.738, 3.981e-6
0.740, 4.126e-6
0.742, 4.278e-6
0.744, 4.426e-6
0.746, 4.567e-6
0.748, 4.712e-6
0.750, 4.844e-6
0.752, 4.976e-6
0.754, 5.105e-6
0.756, 5.224e-6
0.758, 5.340e-6
0.760, 5.447e-6
0.762, 5.546e-6
0.764, 5.642e-6
0.766, 5.717e-6
0.768, 5.795e-6
0.770, 5.865e-6
0.772, 5.918e-6
0.774, 5.968e-6
0.776, 6.012e-6
0.778, 6.041e-6
0.780, 6.069e-6
0.782, 6.082e-6
0.784, 6.091e-6
0.786, 6.095e-6
0.788, 6.087e-6
0.790, 6.077e-6
0.792, 6.059e-6
0.794, 6.034e-6
0.796, 6.010e-6
0.798, 5.974e-6
0.800, 5.941e-6
0.802, 5.901e-6
0.804, 5.852e-6
0.806, 5.809e-6
0.808, 5.760e-6
0.810, 5.709e-6
0.812, 5.660e-6
0.814, 5.606e-6
0.816, 5.553e-6
0.818, 5.498e-6
0.820, 5.443e-6
0.822, 5.386e-6
0.824, 5.331e-6
0.826, 5.275e-6
0.828, 5.221e-6
0.830, 5.167e-6
0.832, 5.114e-6
0.834, 5.061e-6
0.836, 5.006e-6
0.838, 4.955e-6
0.840, 4.905e-6
0.842, 4.853e-6
0.844, 4.806e-6
0.846, 4.758e-6
0.848, 4.712e-6
0.850, 4.668e-6
0.852, 4.622e-6
0.854, 4.579e-6
0.856, 4.535e-6
0.858, 4.493e-6
0.860, 4.452e-6
0.862, 4.413e-6
0.864, 4.376e-6
0.866, 4.339e-6
0.868, 4.302e-6
0.870, 4.266e-6
0.872, 4.231e-6
0.874, 4.196e-6
0.876, 4.162e-6
0.878, 4.130e-6
0.880, 4.099e-6
0.882, 4.070e-6
0.884, 4.041e-6
0.886, 4.012e-6
0.888, 3.984e-6
0.890, 3.955e-6
0.892, 3.929e-6
0.894, 3.901e-6
0.896, 3.877e-6
0.898, 3.852e-6
0.900, 3.829e-6
0.902, 3.806e-6
0.904, 3.783e-6
0.906, 3.760e-6
0.908, 3.737e-6
0.910, 3.715e-6
0.912, 3.693e-6
0.914, 3.674e-6
0.916, 3.654e-6
0.918, 3.637e-6
0.920, 3.618e-6
0.922, 3.598e-6
0.924, 3.580e-6
0.926, 3.560e-6
0.928, 3.543e-6
0.930, 3.525e-6
0.932, 3.510e-6
0.934, 3.494e-6
0.936, 3.479e-6
0.938, 3.464e-6
0.940, 3.447e-6
0.942, 3.433e-6
0.944, 3.415e-6
0.946, 3.402e-6
0.948, 3.387e-6
0.950, 3.373e-6
0.952, 3.362e-6
0.954, 3.348e-6
0.956, 3.337e-6
0.958, 3.322e-6
0.960, 3.308e-6
0.962, 3.295e-6
0.964, 3.282e-6
0.966, 3.271e-6
0.968, 3.260e-6
0.970, 3.250e-6
0.972, 3.239e-6
0.974, 3.227e-6
0.976, 3.215e-6
0.978, 3.203e-6
0.980, 3.192e-6
0.982, 3.181e-6
0.984, 3.173e-6
0.986, 3.163e-6
0.988, 3.155e-6
0.990, 3.144e-6
0.992, 3.135e-6
0.994, 3.124e-6
0.996, 3.113e-6
0.998, 3.104e-6
1.000, 3.094e-6
1.002, 3.088e-6
1.004, 3.079e-6
1.006, 3.072e-6
1.008, 3.064e-6
1.010, 3.054e-6
1.012, 3.045e-6
1.014, 3.036e-6
1.016, 3.028e-6
1.018, 3.021e-6
1.020, 3.013e-6
1.022, 3.008e-6
1.024, 3.000e-6
1.026, 2.994e-6
1.028, 2.985e-6
1.030, 2.977e-6
1.032, 2.970e-6
1.034, 2.962e-6
1.036, 2.957e-6
1.038, 2.951e-6
1.040, 2.945e-6
1.042, 2.939e-6
1.044, 2.932e-6
1.046, 2.925e-6
1.048, 2.920e-6
1.050, 2.912e-6
1.052, 2.907e-6
1.054, 2.902e-6
1.056, 2.897e-6
1.058, 2.892e-6
1.060, 2.886e-6
1.062, 2.882e-6
1.064, 2.875e-6
1.066, 2.869e-6
1.068, 2.863e-6
1.070, 2.858e-6
1.072, 2.856e-6
1.074, 2.850e-6
1.076, 2.846e-6
1.078, 2.842e-6
1.080, 2.836e-6
1.082, 2.832e-6
1.084, 2.826e-6
1.086, 2.822e-6
1.088, 2.818e-6
1.090, 2.814e-6
1.092, 2.811e-6
1.094, 2.807e-6
1.096, 2.805e-6
1.098, 2.799e-6
1.100, 2.796e-6
1.102, 2.791e-6
1.104, 2.786e-6
1.106, 2.783e-6
1.108, 2.779e-6
1.110, 2.777e-6
1.112, 2.773e-6
1.114, 2.771e-6
1.116, 2.767e-6
1.118, 2.763e-6
1.120, 2.761e-6
1.122, 2.757e-6
1.124, 2.754e-6
1.126, 2.750e-6
1.128, 2.747e-6
1.130, 2.745e-6
1.132, 2.740e-6
1.134, 2.740e-6
1.136, 2.736e-6
1.138, 2.734e-6
1.140, 2.731e-6
1.142, 2.727e-6
1.144, 2.725e-6
1.146, 2.721e-6
1.148, 2.719e-6
1.150, 2.717e-6
1.152, 2.714e-6
1.154, 2.714e-6
1.156, 2.709e-6
1.158, 2.709e-6
1.160, 2.705e-6
1.162, 2.701e-6
1.164, 2.700e-6
1.166, 2.695e-6
1.168, 2.695e-6
1.170, 2.693e-6
1.172, 2.691e-6
1.174, 2.691e-6
1.176, 2.685e-6
1.178, 2.685e-6
1.180, 2.680e-6
1.182, 2.678e-6
1.184, 2.676e-6
1.186, 2.673e-6
1.188, 2.674e-6
1.190, 2.671e-6
1.192, 2.671e-6
1.194, 2.667e-6
1.196, 2.663e-6
1.198, 2.662e-6
1.200, 2.657e-6
1.202, 2.657e-6
1.204, 2.655e-6
1.206, 2.654e-6
1.208, 2.653e-6
1.210, 2.649e-6
1.212, 2.649e-6
1.214, 2.644e-6
1.216, 2.642e-6
1.218, 2.640e-6
1.220, 2.638e-6
1.222, 2.638e-6
1.224, 2.635e-6
1.226, 2.635e-6
1.228, 2.631e-6
1.230, 2.629e-6
1.232, 2.626e-6
1.234, 2.625e-6
1.236, 2.623e-6
1.238, 2.622e-6
1.240, 2.620e-6
1.242, 2.619e-6
1.244, 2.616e-6
1.246, 2.615e-6
1.248, 2.613e-6
1.250, 2.611e-6
1.252, 2.610e-6
1.254, 2.608e-6
1.256, 2.608e-6
1.258, 2.606e-6
1.260, 2.604e-6
1.262, 2.605e-6
1.264, 2.601e-6
1.266, 2.601e-6
1.268, 2.597e-6
1.270, 2.597e-6
1.272, 2.598e-6
1.274, 2.595e-6
1.276, 2.596e-6
1.278, 2.592e-6
1.280, 2.593e-6
1.282, 2.589e-6
1.284, 2.588e-6
1.286, 2.588e-6
1.288, 2.586e-6
1.290, 2.588e-6
1.292, 2.586e-6
1.294, 2.585e-6
1.296, 2.584e-6
1.298, 2.581e-6
1.300, 2.580e-6
1.302, 2.579e-6
1.304, 2.579e-6
1.306, 2.578e-6
1.308, 2.577e-6
1.310, 2.578e-6
1.312, 2.576e-6
1.314, 2.576e-6
1.316, 2.574e-6
1.318, 2.571e-6
1.320, 2.571e-6
1.322, 2.569e-6
1.324, 2.570e-6
1.326, 2.572e-6
1.328, 2.570e-6
1.330, 2.572e-6
1.332, 2.567e-6
1.334, 2.567e-6
1.336, 2.565e-6
1.338, 2.563e-6
1.340, 2.564e-6
1.342, 2.564e-6
1.344, 2.567e-6
1.346, 2.566e-6
1.348, 2.567e-6
1.350, 2.565e-6
1.352, 2.562e-6
1.354, 2.561e-6
1.356, 2.559e-6
1.358, 2.561e-6
1.360, 2.561e-6
1.362, 2.564e-6
1.364, 2.564e-6
1.366, 2.564e-6
1.368, 2.564e-6
1.370, 2.559e-6
1.372, 2.558e-6
1.374, 2.556e-6
1.376, 2.557e-6
1.378, 2.560e-6
1.380, 2.562e-6
1.382, 2.561e-6
1.384, 2.563e-6
1.386, 2.559e-6
1.388, 2.558e-6
1.390, 2.556e-6
1.392, 2.554e-6
1.394, 2.557e-6
1.396, 2.558e-6
1.398, 2.560e-6
1.400, 2.560e-6
1.402, 2.559e-6
1.404, 2.559e-6
1.406, 2.555e-6
1.408, 2.556e-6
1.410, 2.554e-6
1.412, 2.555e-6
1.414, 2.556e-6
1.416, 2.557e-6
1.418, 2.560e-6
1.420, 2.557e-6
1.422, 2.557e-6
1.424, 2.555e-6
1.426, 2.553e-6
1.428, 2.554e-6
1.430, 2.553e-6
1.432, 2.556e-6
1.434, 2.556e-6
1.436, 2.556e-6
1.438, 2.555e-6
1.440, 2.554e-6
1.442, 2.552e-6
1.444, 2.551e-6
1.446, 2.550e-6
1.448, 2.552e-6
1.450, 2.551e-6
1.452, 2.553e-6
1.454, 2.552e-6
1.456, 2.551e-6
1.458, 2.549e-6
1.460, 2.546e-6
1.462, 2.547e-6
1.464, 2.546e-6
1.466, 2.549e-6
1.468, 2.547e-6
1.470, 2.549e-6
1.472, 2.549e-6
1.474, 2.545e-6
1.476, 2.544e-6
1.478, 2.540e-6
1.480, 2.542e-6
1.482, 2.542e-6
1.484, 2.543e-6
1.486, 2.546e-6
1.488, 2.542e-6
1.490, 2.545e-6
1.492, 2.539e-6
1.494, 2.539e-6
1.496, 2.539e-6
1.498, 2.536e-6
1.500, 2.541e-6
1.502, 2.540e-6
1.504, 2.542e-6
1.506, 2.541e-6
1.508, 2.537e-6
1.510, 2.537e-6
1.512, 2.535e-6
1.514, 2.535e-6
1.516, 2.538e-6
1.518, 2.538e-6
1.520, 2.540e-6
1.522, 2.540e-6
1.524, 2.538e-6
1.526, 2.537e-6
1.528, 2.534e-6
1.530, 2.535e-6
1.532, 2.535e-6
1.534, 2.538e-6
1.536, 2.539e-6
1.538, 2.541e-6
1.540, 2.541e-6
1.542, 2.539e-6
1.544, 2.539e-6
1.546, 2.537e-6
1.548, 2.537e-6
1.550, 2.541e-6
1.552, 2.541e-6
1.554, 2.548e-6
1.556, 2.547e-6
1.558, 2.547e-6
1.560, 2.546e-6
1.562, 2.543e-6
1.564, 2.543e-6
1.566, 2.544e-6
1.568, 2.550e-6
1.570, 2.553e-6
1.572, 2.558e-6
1.574, 2.557e-6
1.576, 2.559e-6
1.578, 2.556e-6
1.580, 2.555e-6
1.582, 2.556e-6
1.584, 2.556e-6
1.586, 2.563e-6
1.588, 2.566e-6
1.590, 2.571e-6
1.592, 2.574e-6
1.594, 2.572e-6
1.596, 2.571e-6
1.598, 2.569e-6
1.600, 2.570e-6
1.602, 2.573e-6
1.604, 2.579e-6
1.606, 2.583e-6
1.608, 2.590e-6
1.610, 2.589e-6
1.612, 2.590e-6
1.614, 2.589e-6
1.616, 2.586e-6
1.618, 2.590e-6
1.620, 2.591e-6
1.622, 2.598e-6
1.624, 2.603e-6
1.626, 2.609e-6
1.628, 2.609e-6
1.630, 2.609e-6
1.632, 2.608e-6
1.634, 2.607e-6
1.636, 2.610e-6
1.638, 2.612e-6
1.640, 2.618e-6
1.642, 2.623e-6
1.644, 2.627e-6
1.646, 2.630e-6
1.648, 2.628e-6
1.650, 2.629e-6
1.652, 2.626e-6
1.654, 2.631e-6
1.656, 2.634e-6
1.658, 2.638e-6
1.660, 2.644e-6
1.662, 2.646e-6
1.664, 2.650e-6
1.666, 2.648e-6
1.668, 2.648e-6
1.670, 2.648e-6
1.672, 2.652e-6
1.674, 2.653e-6
1.676, 2.661e-6
1.678, 2.663e-6
1.680, 2.667e-6
1.682, 2.670e-6
1.684, 2.666e-6
1.686, 2.669e-6
1.688, 2.668e-6
1.690, 2.673e-6
1.692, 2.676e-6
1.694, 2.680e-6
1.696, 2.686e-6
1.698, 2.684e-6
1.700, 2.688e-6
1.702, 2.686e-6
1.704, 2.691e-6
1.706, 2.691e-6
1.708, 2.693e-6
1.710, 2.699e-6
1.712, 2.700e-6
1.714, 2.708e-6
1.716, 2.706e-6
1.718, 2.708e-6
1.720, 2.711e-6
1.722, 2.711e-6
1.724, 2.717e-6
1.726, 2.718e-6
1.728, 2.725e-6
1.730, 2.728e-6
1.732, 2.731e-6
1.734, 2.734e-6
1.736, 2.736e-6
1.738, 2.738e-6
1.740, 2.741e-6
1.742, 2.747e-6
1.744, 2.753e-6
1.746, 2.760e-6
1.748, 2.763e-6
1.750, 2.767e-6
1.752, 2.771e-6
1.754, 2.775e-6
1.756, 2.780e-6
1.758, 2.789e-6
1.760, 2.796e-6
1.762, 2.805e-6
1.764, 2.813e-6
1.766, 2.819e-6
1.768, 2.830e-6
1.770, 2.832e-6
1.772, 2.842e-6
1.774, 2.852e-6
1.776, 2.862e-6
1.778, 2.875e-6
1.780, 2.884e-6
1.782, 2.897e-6
1.784, 2.909e-6
1.786, 2.917e-6
1.788, 2.929e-6
1.790, 2.937e-6
1.792, 2.951e-6
1.794, 2.964e-6
1.796, 2.975e-6
1.798, 2.990e-6
1.800, 3.001e-6
1.802, 3.013e-6
1.804, 3.022e-6
1.806, 3.032e-6
1.808, 3.041e-6
1.810, 3.055e-6
1.812, 3.065e-6
1.814, 3.080e-6
1.816, 3.090e-6
1.818, 3.100e-6
1.820, 3.110e-6
1.822, 3.117e-6
1.824, 3.128e-6
1.826, 3.137e-6
1.828, 3.148e-6
1.830, 3.160e-6
1.832, 3.174e-6
1.834, 3.185e-6
1.836, 3.195e-6
1.838, 3.203e-6
1.840, 3.211e-6
1.842, 3.221e-6
1.844, 3.234e-6
1.846, 3.247e-6
1.848, 3.261e-6
1.850, 3.274e-6
1.852, 3.286e-6
1.854, 3.297e-6
1.856, 3.310e-6
1.858, 3.317e-6
1.860, 3.334e-6
1.862, 3.345e-6
1.864, 3.364e-6
1.866, 3.379e-6
1.868, 3.393e-6
1.870, 3.412e-6
1.872, 3.422e-6
1.874, 3.439e-6
1.876, 3.450e-6
1.878, 3.466e-6
1.880, 3.487e-6
1.882, 3.505e-6
1.884, 3.528e-6
1.886, 3.547e-6
1.888, 3.565e-6
1.890, 3.584e-6
1.892, 3.598e-6
1.894, 3.619e-6
1.896, 3.639e-6
1.898, 3.661e-6
1.900, 3.689e-6
1.902, 3.715e-6
1.904, 3.740e-6
1.906, 3.765e-6
1.908, 3.783e-6
1.910, 3.807e-6
1.912, 3.831e-6
1.914, 3.857e-6
1.916, 3.889e-6
1.918, 3.920e-6
1.920, 3.954e-6
1.922, 3.985e-6
1.924, 4.013e-6
1.926, 4.042e-6
1.928, 4.070e-6
1.930, 4.102e-6
1.932, 4.138e-6
1.934, 4.176e-6
1.936, 4.217e-6
1.938, 4.257e-6
1.940, 4.297e-6
1.942, 4.333e-6
1.944, 4.373e-6
1.946, 4.407e-6
1.948, 4.450e-6
1.950, 4.496e-6
1.952, 4.543e-6
1.954, 4.596e-6
1.956, 4.643e-6
1.958, 4.693e-6
1.960, 4.743e-6
1.962, 4.787e-6
1.964, 4.840e-6
1.966, 4.891e-6
1.968, 4.948e-6
1.970, 5.010e-6
1.972, 5.068e-6
1.974, 5.132e-6
1.976, 5.192e-6
1.978, 5.251e-6
1.980, 5.312e-6
1.982, 5.373e-6
1.984, 5.440e-6
1.986, 5.509e-6
1.988, 5.581e-6
1.990, 5.654e-6
1.992, 5.729e-6
1.994, 5.801e-6
1.996, 5.874e-6
1.998, 5.947e-6
1.999, 5.986e-6

Segment 2:
2.000, 5.970e-6
1.997, 5.622e-6
1.994, 5.350e-6
1.991, 5.118e-6
1.988, 4.908e-6
1.985, 4.716e-6
1.982, 4.543e-6
1.979, 4.385e-6
1.976, 4.246e-6
1.973, 4.119e-6
1.970, 3.998e-6
1.967, 3.883e-6
1.964, 3.774e-6
1.961, 3.676e-6
1.958, 3.590e-6
1.955, 3.507e-6
1.952, 3.429e-6
1.949, 3.352e-6
1.946, 3.278e-6
1.943, 3.212e-6
1.940, 3.155e-6
1.937, 3.099e-6
1.934, 3.047e-6
1.931, 2.991e-6
1.928, 2.941e-6
1.925, 2.895e-6
1.922, 2.855e-6
1.919, 2.817e-6
1.916, 2.781e-6
1.913, 2.741e-6
1.910, 2.704e-6
1.907, 2.671e-6
1.904, 2.644e-6
1.901, 2.616e-6
1.898, 2.591e-6
1.895, 2.563e-6
1.892, 2.537e-6
1.889, 2.512e-6
1.886, 2.490e-6
1.883, 2.472e-6
1.880, 2.454e-6
1.877, 2.433e-6
1.874, 2.417e-6
1.871, 2.396e-6
1.868, 2.382e-6
1.865, 2.369e-6
1.862, 2.355e-6
1.859, 2.343e-6
1.856, 2.328e-6
1.853, 2.313e-6
1.850, 2.302e-6
1.847, 2.291e-6
1.844, 2.283e-6
1.841, 2.272e-6
1.838, 2.262e-6
1.835, 2.250e-6
1.832, 2.241e-6
1.829, 2.232e-6
1.826, 2.227e-6
1.823, 2.221e-6
1.820, 2.214e-6
1.817, 2.204e-6
1.814, 2.193e-6
1.811, 2.189e-6
1.808, 2.185e-6
1.805, 2.180e-6
1.802, 2.177e-6
1.799, 2.165e-6
1.796, 2.159e-6
1.793, 2.151e-6
1.790, 2.150e-6
1.787, 2.150e-6
1.784, 2.144e-6
1.781, 2.134e-6
1.778, 2.128e-6
1.775, 2.123e-6
1.772, 2.123e-6
1.769, 2.122e-6
1.766, 2.117e-6
1.763, 2.110e-6
1.760, 2.102e-6
1.757, 2.100e-6
1.754, 2.097e-6
1.751, 2.098e-6
1.748, 2.094e-6
1.745, 2.086e-6
1.742, 2.081e-6
1.739, 2.077e-6
1.736, 2.076e-6
1.733, 2.076e-6
1.730, 2.073e-6
1.727, 2.067e-6
1.724, 2.061e-6
1.721, 2.058e-6
1.718, 2.059e-6
1.715, 2.056e-6
1.712, 2.054e-6
1.709, 2.048e-6
1.706, 2.044e-6
1.703, 2.041e-6
1.700, 2.039e-6
1.697, 2.040e-6
1.694, 2.036e-6
1.691, 2.030e-6
1.688, 2.027e-6
1.685, 2.023e-6
1.682, 2.024e-6
1.679, 2.022e-6
1.676, 2.021e-6
1.673, 2.016e-6
1.670, 2.011e-6
1.667, 2.010e-6
1.664, 2.008e-6
1.661, 2.007e-6
1.658, 2.006e-6
1.655, 2.000e-6
1.652, 1.998e-6
1.649, 1.994e-6
1.646, 1.994e-6
1.643, 1.993e-6
1.640, 1.991e-6
1.637, 1.987e-6
1.634, 1.983e-6
1.631, 1.981e-6
1.628, 1.980e-6
1.625, 1.980e-6
1.622, 1.978e-6
1.619, 1.972e-6
1.616, 1.972e-6
1.613, 1.968e-6
1.610, 1.969e-6
1.607, 1.969e-6
1.604, 1.964e-6
1.601, 1.962e-6
1.598, 1.958e-6
1.595, 1.956e-6
1.592, 1.958e-6
1.589, 1.954e-6
1.586, 1.952e-6
1.583, 1.949e-6
1.580, 1.948e-6
1.577, 1.948e-6
1.574, 1.946e-6
1.571, 1.945e-6
1.568, 1.941e-6
1.565, 1.939e-6
1.562, 1.938e-6
1.559, 1.937e-6
1.556, 1.936e-6
1.553, 1.935e-6
1.550, 1.931e-6
1.547, 1.929e-6
1.544, 1.928e-6
1.541, 1.927e-6
1.538, 1.929e-6
1.535, 1.926e-6
1.532, 1.922e-6
1.529, 1.921e-6
1.526, 1.919e-6
1.523, 1.919e-6
1.520, 1.920e-6
1.517, 1.917e-6
1.514, 1.915e-6
1.511, 1.910e-6
1.508, 1.911e-6
1.505, 1.911e-6
1.502, 1.910e-6
1.499, 1.908e-6
1.496, 1.904e-6
1.493, 1.901e-6
1.490, 1.903e-6
1.487, 1.901e-6
1.484, 1.903e-6
1.481, 1.899e-6
1.478, 1.896e-6
1.475, 1.894e-6
1.472, 1.894e-6
1.469, 1.894e-6
1.466, 1.894e-6
1.463, 1.891e-6
1.460, 1.886e-6
1.457, 1.886e-6
1.454, 1.885e-6
1.451, 1.886e-6
1.448, 1.885e-6
1.445, 1.880e-6
1.442, 1.878e-6
1.439, 1.877e-6
1.436, 1.880e-6
1.433, 1.878e-6
1.430, 1.875e-6
1.427, 1.873e-6
1.424, 1.870e-6
1.421, 1.870e-6
1.418, 1.871e-6
1.415, 1.869e-6
1.412, 1.867e-6
1.409, 1.864e-6
1.406, 1.861e-6
1.403, 1.862e-6
1.400, 1.861e-6
1.397, 1.860e-6
1.394, 1.859e-6
1.391, 1.855e-6
1.388, 1.853e-6
1.385, 1.853e-6
1.382, 1.853e-6
1.379, 1.852e-6
1.376, 1.850e-6
1.373, 1.846e-6
1.370, 1.845e-6
1.367, 1.844e-6
1.364, 1.844e-6
1.361, 1.843e-6
1.358, 1.841e-6
1.355, 1.836e-6
1.352, 1.836e-6
1.349, 1.836e-6
1.346, 1.834e-6
1.343, 1.833e-6
1.340, 1.831e-6
1.337, 1.829e-6
1.334, 1.828e-6
1.331, 1.828e-6
1.328, 1.826e-6
1.325, 1.824e-6
1.322, 1.823e-6
1.319, 1.821e-6
1.316, 1.819e-6
1.313, 1.818e-6
1.310, 1.817e-6
1.307, 1.815e-6
1.304, 1.813e-6
1.301, 1.811e-6
1.298, 1.810e-6
1.295, 1.810e-6
1.292, 1.808e-6
1.289, 1.806e-6
1.286, 1.804e-6
1.283, 1.802e-6
1.280, 1.802e-6
1.277, 1.800e-6
1.274, 1.799e-6
1.271, 1.796e-6
1.268, 1.794e-6
1.265, 1.793e-6
1.262, 1.792e-6
1.259, 1.790e-6
1.256, 1.788e-6
1.253, 1.786e-6
1.250, 1.785e-6
1.247, 1.783e-6
1.244, 1.783e-6
1.241, 1.781e-6
1.238, 1.779e-6
1.235, 1.777e-6
1.232, 1.777e-6
1.229, 1.775e-6
1.226, 1.773e-6
1.223, 1.771e-6
1.220, 1.770e-6
1.217, 1.768e-6
1.214, 1.766e-6
1.211, 1.765e-6
1.208, 1.764e-6
1.205, 1.761e-6
1.202, 1.760e-6
1.199, 1.758e-6
1.196, 1.757e-6
1.193, 1.757e-6
1.190, 1.754e-6
1.187, 1.753e-6
1.184, 1.751e-6
1.181, 1.749e-6
1.178, 1.748e-6
1.175, 1.746e-6
1.172, 1.745e-6
1.169, 1.743e-6
1.166, 1.740e-6
1.163, 1.738e-6
1.160, 1.737e-6
1.157, 1.735e-6
1.154, 1.734e-6
1.151, 1.733e-6
1.148, 1.731e-6
1.145, 1.730e-6
1.142, 1.729e-6
1.139, 1.727e-6
1.136, 1.726e-6
1.133, 1.723e-6
1.130, 1.722e-6
1.127, 1.720e-6
1.124, 1.718e-6
1.121, 1.717e-6
1.118, 1.715e-6
1.115, 1.714e-6
1.112, 1.712e-6
1.109, 1.709e-6
1.106, 1.708e-6
1.103, 1.707e-6
1.100, 1.706e-6
1.097, 1.705e-6
1.094, 1.702e-6
1.091, 1.701e-6
1.088, 1.700e-6
1.085, 1.698e-6
1.082, 1.697e-6
1.079, 1.694e-6
1.076, 1.693e-6
1.073, 1.690e-6
1.070, 1.689e-6
1.067, 1.687e-6
1.064, 1.685e-6
1.061, 1.683e-6
1.058, 1.682e-6
1.055, 1.681e-6
1.052, 1.680e-6
1.049, 1.678e-6
1.046, 1.677e-6
1.043, 1.674e-6
1.040, 1.673e-6
1.037, 1.671e-6
1.034, 1.670e-6
1.031, 1.668e-6
1.028, 1.666e-6
1.025, 1.664e-6
1.022, 1.662e-6
1.019, 1.660e-6
1.016, 1.659e-6
1.013, 1.657e-6
1.010, 1.656e-6
1.007, 1.654e-6
1.004, 1.652e-6
1.001, 1.652e-6
0.998, 1.649e-6
0.995, 1.648e-6
0.992, 1.646e-6
0.989, 1.644e-6
0.986, 1.642e-6
0.983, 1.639e-6
0.980, 1.638e-6
0.977, 1.636e-6
0.974, 1.634e-6
0.971, 1.632e-6
0.968, 1.630e-6
0.965, 1.628e-6
0.962, 1.626e-6
0.959, 1.624e-6
0.956, 1.623e-6
0.953, 1.620e-6
0.950, 1.618e-6
0.947, 1.616e-6
0.944, 1.613e-6
0.941, 1.611e-6
0.938, 1.608e-6
0.935, 1.606e-6
0.932, 1.604e-6
0.929, 1.600e-6
0.926, 1.597e-6
0.923, 1.594e-6
0.920, 1.590e-6
0.917, 1.586e-6
0.914, 1.583e-6
0.911, 1.578e-6
0.908, 1.574e-6
0.905, 1.569e-6
0.902, 1.564e-6
0.899, 1.558e-6
0.896, 1.552e-6
0.893, 1.545e-6
0.890, 1.537e-6
0.887, 1.529e-6
0.884, 1.520e-6
0.881, 1.510e-6
0.878, 1.498e-6
0.875, 1.486e-6
0.872, 1.473e-6
0.869, 1.457e-6
0.866, 1.442e-6
0.863, 1.423e-6
0.860, 1.403e-6
0.857, 1.380e-6
0.854, 1.354e-6
0.851, 1.327e-6
0.848, 1.296e-6
0.845, 1.261e-6
0.842, 1.222e-6
0.839, 1.179e-6
0.836, 1.132e-6
0.833, 1.080e-6
0.830, 1.023e-6
0.827, 9.586e-7
0.824, 8.887e-7
0.821, 8.119e-7
0.818, 7.267e-7
0.815, 6.368e-7
0.812, 5.353e-7
0.809, 4.251e-7
0.806, 3.045e-7
0.803, 1.760e-7
0.800, 3.771e-8
0.797, -1.131e-7
0.794, -2.718e-7
0.791, -4.438e-7
0.788, -6.231e-7
0.785, -8.158e-7
0.782, -1.013e-6
0.779, -1.222e-6
0.776, -1.431e-6
0.773, -1.655e-6
0.770, -1.874e-6
0.767, -2.104e-6
0.764, -2.328e-6
0.761, -2.557e-6
0.758, -2.778e-6
0.755, -3.000e-6
0.752, -3.208e-6
0.749, -3.409e-6
0.746, -3.597e-6
0.743, -3.771e-6
0.740, -3.929e-6
0.737, -4.072e-6
0.734, -4.198e-6
0.731, -4.301e-6
0.728, -4.388e-6
0.725, -4.453e-6
0.722, -4.501e-6
0.719, -4.530e-6
0.716, -4.537e-6
0.713, -4.539e-6
0.710, -4.524e-6
0.707, -4.497e-6
0.704, -4.456e-6
0.701, -4.406e-6
0.698, -4.346e-6
0.695, -4.281e-6
0.692, -4.209e-6
0.689, -4.134e-6
0.686, -4.054e-6
0.683, -3.973e-6
0.680, -3.890e-6
0.677, -3.807e-6
0.674, -3.723e-6
0.671, -3.642e-6
0.668, -3.559e-6
0.665, -3.480e-6
0.662, -3.401e-6
0.659, -3.325e-6
0.656, -3.251e-6
0.653, -3.180e-6
0.650, -3.110e-6
0.647, -3.043e-6
0.644, -2.977e-6
0.641, -2.915e-6
0.638, -2.854e-6
0.635, -2.796e-6
0.632, -2.740e-6
0.629, -2.686e-6
0.626, -2.633e-6
0.623, -2.582e-6
0.620, -2.534e-6
0.617, -2.488e-6
0.614, -2.443e-6
0.611, -2.400e-6
0.608, -2.359e-6
0.605, -2.318e-6
0.602, -2.280e-6
0.599, -2.244e-6
0.596, -2.207e-6
0.593, -2.173e-6
0.590, -2.140e-6
0.587, -2.107e-6
0.584, -2.076e-6
0.581, -2.046e-6
0.578, -2.016e-6
0.575, -1.988e-6
0.572, -1.959e-6
0.569, -1.934e-6
0.566, -1.908e-6
0.563, -1.882e-6
0.560, -1.858e-6
0.557, -1.834e-6
0.554, -1.811e-6
0.551, -1.789e-6
0.548, -1.767e-6
0.545, -1.746e-6
0.542, -1.725e-6
0.539, -1.706e-6
0.536, -1.686e-6
0.533, -1.667e-6
0.530, -1.649e-6
0.527, -1.630e-6
0.524, -1.612e-6
0.521, -1.595e-6
0.518, -1.577e-6
0.515, -1.561e-6
0.512, -1.545e-6
0.509, -1.529e-6
0.506, -1.513e-6
0.503, -1.499e-6
0.500, -1.483e-6
0.497, -1.469e-6
0.494, -1.455e-6
0.491, -1.441e-6
0.488, -1.427e-6
0.485, -1.413e-6
0.482, -1.400e-6
0.479, -1.387e-6
0.476, -1.374e-6
0.473, -1.361e-6
0.470, -1.349e-6
0.467, -1.337e-6
0.464, -1.325e-6
0.461, -1.313e-6
0.458, -1.301e-6
0.455, -1.291e-6
0.452, -1.279e-6
0.449, -1.268e-6
0.446, -1.257e-6
0.443, -1.246e-6
0.440, -1.236e-6
0.437, -1.225e-6
0.434, -1.215e-6
0.431, -1.206e-6
0.428, -1.194e-6
0.425, -1.185e-6
0.422, -1.175e-6
0.419, -1.165e-6
0.416, -1.157e-6
0.413, -1.147e-6
0.410, -1.137e-6
0.407, -1.129e-6
0.404, -1.119e-6
0.401, -1.112e-6
0.398, -1.102e-6
0.395, -1.094e-6
0.392, -1.086e-6
0.389, -1.076e-6
0.386, -1.068e-6
0.383, -1.061e-6
0.380, -1.052e-6
0.377, -1.044e-6
0.374, -1.036e-6
0.371, -1.028e-6
0.368, -1.020e-6
0.365, -1.013e-6
0.362, -1.005e-6
0.359, -9.984e-7
0.356, -9.902e-7
0.353, -9.824e-7
0.350, -9.750e-7
0.347, -9.686e-7
0.344, -9.624e-7
0.341, -9.552e-7
0.338, -9.479e-7
0.335, -9.402e-7
0.332, -9.328e-7
0.329, -9.267e-7
0.326, -9.207e-7
0.323, -9.148e-7
0.320, -9.075e-7
0.317, -9.006e-7
0.314, -8.939e-7
0.311, -8.886e-7
0.308, -8.817e-7
0.305, -8.762e-7
0.302, -8.698e-7
0.299, -8.636e-7
0.296, -8.570e-7
0.293, -8.517e-7
0.290, -8.456e-7
0.287, -8.407e-7
0.284, -8.337e-7
0.281, -8.272e-7
0.278, -8.213e-7
0.275, -8.170e-7
0.272, -8.118e-7
0.269, -8.065e-7
0.266, -7.999e-7
0.263, -7.945e-7
0.260, -7.895e-7
0.257, -7.845e-7
0.254, -7.795e-7
0.251, -7.738e-7
0.248, -7.683e-7
0.245, -7.635e-7
0.242, -7.578e-7
0.239, -7.534e-7
0.236, -7.479e-7
0.233, -7.432e-7
0.230, -7.377e-7
0.227, -7.330e-7
0.224, -7.286e-7
0.221, -7.243e-7
0.218, -7.193e-7
0.215, -7.145e-7
0.212, -7.089e-7
0.209, -7.048e-7
0.206, -7.004e-7
0.203, -6.963e-7
0.200, -6.916e-7
0.197, -6.866e-7
0.194, -6.815e-7
0.191, -6.776e-7
0.188, -6.733e-7
0.185, -6.697e-7
0.182, -6.645e-7
0.179, -6.598e-7
0.176, -6.555e-7
0.173, -6.519e-7
0.170, -6.477e-7
0.167, -6.439e-7
0.164, -6.392e-7
0.161, -6.353e-7
0.158, -6.313e-7
0.155, -6.279e-7
0.152, -6.234e-7
0.149, -6.203e-7
0.146, -6.155e-7
0.143, -6.111e-7
0.140, -6.075e-7
0.137, -6.041e-7
0.134, -5.999e-7
0.131, -5.964e-7
0.128, -5.924e-7
0.125, -5.890e-7
0.122, -5.850e-7
0.119, -5.818e-7
0.116, -5.775e-7
0.113, -5.743e-7
0.110, -5.715e-7
0.107, -5.684e-7
0.104, -5.645e-7
0.101, -5.602e-7
0.098, -5.559e-7
0.095, -5.534e-7
0.092, -5.498e-7
0.089, -5.472e-7
0.086, -5.440e-7
0.083, -5.398e-7
0.080, -5.367e-7
0.077, -5.337e-7
0.074, -5.304e-7
0.071, -5.281e-7
0.068, -5.244e-7
0.065, -5.215e-7
0.062, -5.176e-7
0.059, -5.147e-7
0.056, -5.123e-7
0.053, -5.096e-7
0.050, -5.058e-7
0.047, -5.020e-7
0.044, -4.988e-7
0.041, -4.964e-7
0.038, -4.941e-7
0.035, -4.915e-7
0.032, -4.881e-7
0.029, -4.847e-7
0.026, -4.813e-7
0.023, -4.794e-7
0.020, -4.775e-7
0.017, -4.752e-7
0.014, -4.726e-7
0.011, -4.686e-7
0.008, -4.652e-7
0.005, -4.638e-7
0.002, -4.611e-7
-0.001, -4.592e-7
-0.004, -4.556e-7
-0.007, -4.525e-7
-0.010, -4.497e-7
-0.013, -4.476e-7
-0.016, -4.456e-7
-0.019, -4.440e-7
-0.022, -4.402e-7
-0.025, -4.379e-7
-0.028, -4.350e-7
-0.031, -4.329e-7
-0.034, -4.316e-7
-0.037, -4.292e-7
-0.040, -4.267e-7
-0.043, -4.245e-7
-0.046, -4.218e-7
-0.049, -4.199e-7
-0.052, -4.178e-7
-0.055, -4.158e-7
-0.058, -4.133e-7
-0.061, -4.109e-7
-0.064, -4.089e-7
-0.067, -4.071e-7
-0.070, -4.049e-7
-0.073, -4.035e-7
-0.076, -4.008e-7
-0.079, -3.988e-7
-0.082, -3.968e-7
-0.085, -3.948e-7
-0.088, -3.932e-7
-0.091, -3.916e-7
-0.094, -3.892e-7
-0.097, -3.878e-7
-0.100, -3.853e-7
-0.103, -3.841e-7
-0.106, -3.826e-7
-0.109, -3.807e-7
-0.112, -3.791e-7
-0.115, -3.774e-7
-0.118, -3.760e-7
-0.121, -3.753e-7
-0.124, -3.731e-7
-0.127, -3.717e-7
-0.130, -3.695e-7
-0.133, -3.682e-7
-0.136, -3.670e-7
-0.139, -3.654e-7
-0.142, -3.638e-7
-0.145, -3.624e-7
-0.148, -3.605e-7
-0.151, -3.599e-7
-0.154, -3.584e-7
-0.157, -3.571e-7
-0.160, -3.558e-7
-0.163, -3.543e-7
-0.166, -3.529e-7
-0.169, -3.521e-7
-0.172, -3.512e-7
-0.175, -3.503e-7
-0.178, -3.484e-7
-0.181, -3.472e-7
-0.184, -3.457e-7
-0.187, -3.450e-7
-0.190, -3.441e-7
-0.193, -3.427e-7
-0.196, -3.412e-7
-0.199, -3.403e-7
-0.202, -3.390e-7
-0.205, -3.388e-7
-0.208, -3.379e-7
-0.211, -3.371e-7
-0.214, -3.359e-7
-0.217, -3.350e-7
-0.220, -3.341e-7
-0.223, -3.340e-7
-0.226, -3.330e-7
-0.229, -3.327e-7
-0.232, -3.312e-7
-0.235, -3.304e-7
-0.238, -3.299e-7
-0.241, -3.290e-7
-0.244, -3.289e-7
-0.247, -3.281e-7
-0.250, -3.267e-7
-0.253, -3.265e-7
-0.256, -3.258e-7
-0.259, -3.259e-7
-0.262, -3.253e-7
-0.265, -3.246e-7
-0.268, -3.237e-7
-0.271, -3.230e-7
-0.274, -3.228e-7
-0.277, -3.233e-7
-0.280, -3.224e-7
-0.283, -3.221e-7
-0.286, -3.205e-7
-0.289, -3.204e-7
-0.292, -3.202e-7
-0.295, -3.205e-7
-0.298, -3.204e-7
-0.301, -3.199e-7
-0.304, -3.189e-7
-0.307, -3.190e-7
-0.310, -3.190e-7
-0.313, -3.193e-7
-0.316, -3.193e-7
-0.319, -3.191e-7
-0.322, -3.188e-7
-0.325, -3.192e-7
-0.328, -3.190e-7
-0.331, -3.193e-7
-0.334, -3.196e-7
-0.337, -3.195e-7
-0.340, -3.193e-7
-0.343, -3.195e-7
-0.346, -3.199e-7
-0.349, -3.207e-7
-0.352, -3.208e-7
-0.355, -3.214e-7
-0.358, -3.212e-7
-0.361, -3.218e-7
-0.364, -3.225e-7
-0.367, -3.234e-7
-0.370, -3.240e-7
-0.373, -3.245e-7
-0.376, -3.249e-7
-0.379, -3.259e-7
-0.382, -3.257e-7
-0.385, -3.271e-7
-0.388, -3.274e-7
-0.391, -3.282e-7
-0.394, -3.291e-7
-0.397, -3.298e-7
-0.400, -3.303e-7
-0.403, -3.320e-7
-0.406, -3.325e-7
-0.409, -3.339e-7
-0.412, -3.346e-7
-0.415, -3.357e-7
-0.418, -3.364e-7
-0.421, -3.378e-7
-0.424, -3.393e-7
-0.427, -3.405e-7
-0.430, -3.417e-7
-0.433, -3.431e-7
-0.436, -3.439e-7
-0.439, -3.460e-7
-0.442, -3.476e-7
-0.445, -3.499e-7
-0.448, -3.515e-7
-0.451, -3.526e-7
-0.454, -3.540e-7
-0.457, -3.560e-7
-0.460, -3.579e-7
-0.463, -3.605e-7
-0.466, -3.619e-7
-0.469, -3.637e-7
-0.472, -3.654e-7
-0.475, -3.674e-7
-0.478, -3.698e-7
-0.481, -3.725e-7
-0.484, -3.744e-7
-0.487, -3.762e-7
-0.490, -3.777e-7
-0.493, -3.800e-7
-0.496, -3.823e-7
-0.499, -3.848e-7
-0.502, -3.871e-7
-0.505, -3.890e-7
-0.508, -3.907e-7
-0.511, -3.936e-7
-0.514, -3.960e-7
-0.517, -3.988e-7
-0.520, -4.005e-7
-0.523, -4.026e-7
-0.526, -4.047e-7
-0.529, -4.073e-7
-0.532, -4.095e-7
-0.535, -4.118e-7
-0.538, -4.134e-7
-0.541, -4.158e-7
-0.544, -4.178e-7
-0.547, -4.208e-7
-0.550, -4.230e-7
-0.553, -4.248e-7
-0.556, -4.266e-7
-0.559, -4.286e-7
-0.562, -4.310e-7
-0.565, -4.335e-7
-0.568, -4.353e-7
-0.571, -4.377e-7
-0.574, -4.390e-7
-0.577, -4.410e-7
-0.580, -4.430e-7
-0.583, -4.454e-7
-0.586, -4.473e-7
-0.589, -4.491e-7
-0.592, -4.505e-7
-0.595, -4.525e-7
-0.598, -4.542e-7
-0.601, -4.564e-7
-0.604, -4.578e-7
-0.607, -4.594e-7
-0.610, -4.607e-7
-0.613, -4.621e-7
-0.616, -4.633e-7
-0.619, -4.645e-7
-0.622, -4.656e-7
-0.625, -4.666e-7
-0.628, -4.673e-7
-0.631, -4.685e-7
-0.634, -4.692e-7
-0.637, -4.701e-7
-0.640, -4.705e-7
-0.643, -4.714e-7
-0.646, -4.715e-7
-0.649, -4.722e-7
-0.652, -4.725e-7
-0.655, -4.730e-7
-0.658, -4.730e-7
-0.661, -4.732e-7
-0.664, -4.731e-7
-0.667, -4.732e-7
-0.670, -4.732e-7
-0.673, -4.732e-7
-0.676, -4.729e-7
-0.679, -4.731e-7
-0.682, -4.726e-7
-0.685, -4.727e-7
-0.688, -4.725e-7
-0.691, -4.726e-7
-0.694, -4.720e-7
-0.697, -4.720e-7
-0.700, -4.715e-7
-0.703, -4.717e-7
-0.706, -4.714e-7
-0.709, -4.712e-7
-0.712, -4.708e-7
-0.715, -4.704e-7
-0.718, -4.698e-7
-0.721, -4.699e-7
-0.724, -4.691e-7
-0.727, -4.690e-7
-0.730, -4.686e-7
-0.733, -4.684e-7
-0.736, -4.682e-7
-0.739, -4.679e-7
-0.742, -4.676e-7
-0.745, -4.674e-7
-0.748, -4.670e-7
-0.751, -4.670e-7
-0.754, -4.667e-7
-0.757, -4.666e-7
-0.760, -4.663e-7
-0.763, -4.662e-7
-0.766, -4.655e-7
-0.769, -4.656e-7
-0.772, -4.652e-7
-0.775, -4.652e-7
-0.778, -4.647e-7
-0.781, -4.649e-7
-0.784, -4.646e-7
-0.787, -4.648e-7
-0.790, -4.644e-7
-0.793, -4.645e-7
-0.796, -4.641e-7
-0.799, -4.643e-7
-0.802, -4.643e-7
-0.805, -4.647e-7
-0.808, -4.644e-7
-0.811, -4.643e-7
-0.814, -4.640e-7
-0.817, -4.641e-7
-0.820, -4.640e-7
-0.823, -4.644e-7
-0.826, -4.643e-7
-0.829, -4.642e-7
-0.832, -4.642e-7
-0.835, -4.643e-7
-0.838, -4.644e-7
-0.841, -4.648e-7
-0.844, -4.646e-7
-0.847, -4.649e-7
-0.850, -4.647e-7
-0.853, -4.650e-7
-0.856, -4.652e-7
-0.859, -4.656e-7
-0.862, -4.653e-7
-0.865, -4.653e-7
-0.868, -4.651e-7
-0.871, -4.653e-7
-0.874, -4.655e-7
-0.877, -4.661e-7
-0.880, -4.659e-7
-0.883, -4.660e-7
-0.886, -4.658e-7
-0.889, -4.661e-7
-0.892, -4.664e-7
-0.895, -4.669e-7
-0.898, -4.667e-7
-0.901, -4.669e-7
-0.904, -4.667e-7
-0.907, -4.673e-7
-0.910, -4.673e-7
-0.913, -4.674e-7
-0.916, -4.674e-7
-0.919, -4.675e-7
-0.922, -4.671e-7
-0.925, -4.676e-7
-0.928, -4.678e-7
-0.931, -4.683e-7
-0.934, -4.682e-7
-0.937, -4.684e-7
-0.940, -4.682e-7
-0.943, -4.689e-7
-0.946, -4.689e-7
-0.949, -4.694e-7
-0.952, -4.693e-7
-0.955, -4.694e-7
-0.958, -4.693e-7
-0.961, -4.698e-7
-0.964, -4.695e-7
-0.967, -4.700e-7
-0.970, -4.700e-7
-0.973, -4.703e-7
-0.976, -4.700e-7
-0.979, -4.707e-7
-0.982, -4.707e-7
-0.985, -4.711e-7
-0.988, -4.712e-7
-0.991, -4.714e-7
-0.994, -4.714e-7
-0.997, -4.718e-7
-1.000, -4.720e-7
-1.003, -4.723e-7
-1.006, -4.720e-7
-1.009, -4.724e-7
-1.012, -4.721e-7
-1.015, -4.727e-7
-1.018, -4.726e-7
-1.021, -4.732e-7
-1.024, -4.733e-7
-1.027, -4.734e-7
-1.030, -4.735e-7
-1.033, -4.740e-7
-1.036, -4.741e-7
-1.039, -4.745e-7
-1.042, -4.744e-7
-1.045, -4.748e-7
-1.048, -4.750e-7
-1.051, -4.752e-7
-1.054, -4.756e-7
-1.057, -4.758e-7
-1.060, -4.757e-7
-1.063, -4.761e-7
-1.066, -4.762e-7
-1.069, -4.769e-7
-1.072, -4.773e-7
-1.075, -4.775e-7
-1.078, -4.776e-7
-1.081, -4.780e-7
-1.084, -4.781e-7
-1.087, -4.791e-7
-1.090, -4.790e-7
-1.093, -4.797e-7
-1.096, -4.801e-7
-1.099, -4.802e-7
-1.102, -4.804e-7
-1.105, -4.808e-7
-1.108, -4.810e-7
-1.111, -4.816e-7
-1.114, -4.818e-7
-1.117, -4.822e-7
-1.120, -4.826e-7
-1.123, -4.829e-7
-1.126, -4.828e-7
-1.129, -4.833e-7
-1.132, -4.837e-7
-1.135, -4.842e-7
-1.138, -4.845e-7
-1.141, -4.849e-7
-1.144, -4.848e-7
-1.147, -4.853e-7
-1.150, -4.854e-7
-1.153, -4.860e-7
-1.156, -4.858e-7
-1.159, -4.861e-7
-1.162, -4.860e-7
-1.165, -4.865e-7
-1.168, -4.868e-7
-1.171, -4.873e-7
-1.174, -4.874e-7
-1.177, -4.875e-7
-1.180, -4.873e-7
-1.183, -4.880e-7
-1.186, -4.883e-7
-1.189, -4.889e-7
-1.192, -4.889e-7
-1.195, -4.889e-7
-1.198, -4.888e-7
-1.201, -4.894e-7
-1.204, -4.895e-7
-1.207, -4.900e-7
-1.210, -4.902e-7
-1.213, -4.901e-7
-1.216, -4.904e-7
-1.219, -4.910e-7
-1.222, -4.912e-7
-1.225, -4.922e-7
-1.228, -4.918e-7
-1.231, -4.921e-7
-1.234, -4.922e-7
-1.237, -4.928e-7
-1.240, -4.935e-7
-1.243, -4.938e-7
-1.246, -4.937e-7
-1.249, -4.942e-7
-1.252, -4.938e-7
-1.255, -4.947e-7
-1.258, -4.952e-7
-1.261, -4.958e-7
-1.264, -4.958e-7
-1.267, -4.963e-7
-1.270, -4.965e-7
-1.273, -4.972e-7
-1.276, -4.974e-7
-1.279, -4.981e-7
-1.282, -4.984e-7
-1.285, -4.987e-7
-1.288, -4.990e-7
-1.291, -4.995e-7
-1.294, -4.999e-7
-1.297, -5.004e-7
-1.300, -5.005e-7
-1.303, -5.010e-7
-1.306, -5.012e-7
-1.309, -5.017e-7
-1.312, -5.026e-7
-1.315, -5.032e-7
-1.318, -5.033e-7
-1.321, -5.039e-7
-1.324, -5.040e-7
-1.327, -5.046e-7
-1.330, -5.054e-7
-1.333, -5.059e-7
-1.336, -5.064e-7
-1.339, -5.069e-7
-1.342, -5.068e-7
-1.345, -5.074e-7
-1.348, -5.078e-7
-1.351, -5.088e-7
-1.354, -5.091e-7
-1.357, -5.096e-7
-1.360, -5.097e-7
-1.363, -5.104e-7
-1.366, -5.108e-7
-1.369, -5.117e-7
-1.372, -5.122e-7
-1.375, -5.125e-7
-1.378, -5.127e-7
-1.381, -5.134e-7
-1.384, -5.142e-7
-1.387, -5.149e-7
-1.390, -5.150e-7
-1.393, -5.154e-7
-1.396, -5.154e-7
-1.399, -5.161e-7
-1.402, -5.171e-7
-1.405, -5.176e-7
-1.408, -5.183e-7
-1.411, -5.189e-7
-1.414, -5.189e-7
-1.417, -5.197e-7
-1.420, -5.203e-7
-1.423, -5.211e-7
-1.426, -5.215e-7
-1.429, -5.219e-7
-1.432, -5.220e-7
-1.435, -5.226e-7
-1.438, -5.229e-7
-1.441, -5.237e-7
-1.444, -5.238e-7
-1.447, -5.241e-7
-1.450, -5.242e-7
-1.453, -5.250e-7
-1.456, -5.254e-7
-1.459, -5.260e-7
-1.462, -5.261e-7
-1.465, -5.267e-7
-1.468, -5.269e-7
-1.471, -5.276e-7
-1.474, -5.282e-7
-1.477, -5.287e-7
-1.480, -5.291e-7
-1.483, -5.294e-7
-1.486, -5.296e-7
-1.489, -5.302e-7
-1.492, -5.304e-7
-1.495, -5.311e-7
-1.498, -5.314e-7
-1.501, -5.318e-7
-1.504, -5.322e-7
-1.507, -5.329e-7
-1.510, -5.334e-7
-1.513, -5.340e-7
-1.516, -5.343e-7
-1.519, -5.347e-7
-1.522, -5.351e-7
-1.525, -5.358e-7
-1.528, -5.362e-7
-1.531, -5.370e-7
-1.534, -5.372e-7
-1.537, -5.373e-7
-1.540, -5.376e-7
-1.543, -5.384e-7
-1.546, -5.387e-7
-1.549, -5.397e-7
-1.552, -5.400e-7
-1.555, -5.407e-7
-1.558, -5.408e-7
-1.561, -5.421e-7
-1.564, -5.423e-7
-1.567, -5.432e-7
-1.570, -5.436e-7
-1.573, -5.447e-7
-1.576, -5.448e-7
-1.579, -5.460e-7
-1.582, -5.463e-7
-1.585, -5.472e-7
-1.588, -5.475e-7
-1.591, -5.480e-7
-1.594, -5.489e-7
-1.597, -5.497e-7
-1.600, -5.506e-7
-1.603, -5.518e-7
-1.606, -5.519e-7
-1.609, -5.527e-7
-1.612, -5.538e-7
-1.615, -5.548e-7
-1.618, -5.561e-7
-1.621, -5.572e-7
-1.624, -5.580e-7
-1.627, -5.588e-7
-1.630, -5.596e-7
-1.633, -5.613e-7
-1.636, -5.624e-7
-1.639, -5.633e-7
-1.642, -5.644e-7
-1.645, -5.660e-7
-1.648, -5.675e-7
-1.651, -5.694e-7
-1.654, -5.704e-7
-1.657, -5.717e-7
-1.660, -5.725e-7
-1.663, -5.737e-7
-1.666, -5.751e-7
-1.669, -5.768e-7
-1.672, -5.781e-7
-1.675, -5.794e-7
-1.678, -5.804e-7
-1.681, -5.820e-7
-1.684, -5.833e-7
-1.687, -5.852e-7
-1.690, -5.866e-7
-1.693, -5.880e-7
-1.696, -5.893e-7
-1.699, -5.910e-7
-1.702, -5.929e-7
-1.705, -5.948e-7
-1.708, -5.961e-7
-1.711, -5.976e-7
-1.714, -5.987e-7
-1.717, -6.008e-7
-1.720, -6.025e-7
-1.723, -6.043e-7
-1.726, -6.054e-7
-1.729, -6.072e-7
-1.732, -6.085e-7
-1.735, -6.105e-7
-1.738, -6.124e-7
-1.741, -6.140e-7
-1.744, -6.161e-7
-1.747, -6.185e-7
-1.750, -6.201e-7
-1.753, -6.220e-7
-1.756, -6.239e-7
-1.759, -6.257e-7
-1.762, -6.275e-7
-1.765, -6.297e-7
-1.768, -6.313e-7
-1.771, -6.337e-7
-1.774, -6.353e-7
-1.777, -6.373e-7
-1.780, -6.390e-7
-1.783, -6.412e-7
-1.786, -6.434e-7
-1.789, -6.455e-7
-1.792, -6.475e-7
-1.795, -6.492e-7
-1.798, -6.511e-7
-1.801, -6.535e-7
-1.804, -6.556e-7
-1.807, -6.578e-7
-1.810, -6.598e-7
-1.813, -6.621e-7
-1.816, -6.640e-7
-1.819, -6.669e-7
-1.822, -6.687e-7
-1.825, -6.710e-7
-1.828, -6.725e-7
-1.831, -6.747e-7
-1.834, -6.769e-7
-1.837, -6.793e-7
-1.840, -6.812e-7
-1.843, -6.838e-7
-1.846, -6.851e-7
-1.849, -6.876e-7
-1.852, -6.897e-7
-1.855, -6.925e-7
-1.858, -6.948e-7
-1.861, -6.972e-7
-1.864, -6.991e-7
-1.867, -7.014e-7
-1.870, -7.037e-7
-1.873, -7.061e-7
-1.876, -7.083e-7
-1.879, -7.109e-7
-1.882, -7.132e-7
-1.885, -7.160e-7
-1.888, -7.185e-7
-1.891, -7.211e-7
-1.894, -7.239e-7
-1.897, -7.265e-7
-1.900, -7.293e-7
-1.903, -7.322e-7
-1.906, -7.345e-7
-1.909, -7.375e-7
-1.912, -7.407e-7
-1.915, -7.437e-7
-1.918, -7.463e-7
-1.921, -7.492e-7
-1.924, -7.523e-7
-1.927, -7.558e-7
-1.930, -7.590e-7
-1.933, -7.630e-7
-1.936, -7.662e-7
-1.939, -7.698e-7
-1.942, -7.728e-7
-1.945, -7.765e-7
-1.948, -7.804e-7
-1.951, -7.846e-7
-1.954, -7.889e-7
-1.957, -7.930e-7
-1.960, -7.966e-7
-1.963, -8.009e-7
-1.966, -8.048e-7
-1.969, -8.093e-7
-1.972, -8.140e-7
-1.975, -8.181e-7
-1.978, -8.220e-7
-1.981, -8.269e-7
-1.984, -8.318e-7
-1.987, -8.371e-7
-1.990, -8.424e-7
-1.993, -8.470e-7
-1.996, -8.519e-7
-1.999, -8.574e-7

Segment 3:
-2.000, -8.452e-7
-1.998, -8.023e-7
-1.996, -7.793e-7
-1.994, -7.594e-7
-1.992, -7.415e-7
-1.990, -7.256e-7
-1.988, -7.100e-7
-1.986, -6.960e-7
-1.984, -6.824e-7
-1.982, -6.698e-7
-1.980, -6.577e-7
-1.978, -6.467e-7
-1.976, -6.357e-7
-1.974, -6.258e-7
-1.972, -6.156e-7
-1.970, -6.058e-7
-1.968, -5.969e-7
-1.966, -5.876e-7
-1.964, -5.795e-7
-1.962, -5.718e-7
-1.960, -5.635e-7
-1.958, -5.560e-7
-1.956, -5.487e-7
-1.954, -5.421e-7
-1.952, -5.351e-7
-1.950, -5.283e-7
-1.948, -5.225e-7
-1.946, -5.160e-7
-1.944, -5.100e-7
-1.942, -5.041e-7
-1.940, -4.985e-7
-1.938, -4.931e-7
-1.936, -4.878e-7
-1.934, -4.826e-7
-1.932, -4.779e-7
-1.930, -4.733e-7
-1.928, -4.682e-7
-1.926, -4.636e-7
-1.924, -4.592e-7
-1.922, -4.545e-7
-1.920, -4.506e-7
-1.918, -4.464e-7
-1.916, -4.421e-7
-1.914, -4.383e-7
-1.912, -4.343e-7
-1.910, -4.308e-7
-1.908, -4.270e-7
-1.906, -4.240e-7
-1.904, -4.208e-7
-1.902, -4.167e-7
-1.900, -4.140e-7
-1.898, -4.108e-7
-1.896, -4.072e-7
-1.894, -4.040e-7
-1.892, -4.009e-7
-1.890, -3.982e-7
-1.888, -3.953e-7
-1.886, -3.923e-7
-1.884, -3.901e-7
-1.882, -3.873e-7
-1.880, -3.845e-7
-1.878, -3.823e-7
-1.876, -3.798e-7
-1.874, -3.774e-7
-1.872, -3.757e-7
-1.870, -3.732e-7
-1.868, -3.712e-7
-1.866, -3.685e-7
-1.864, -3.663e-7
-1.862, -3.645e-7
-1.860, -3.623e-7
-1.858, -3.602e-7
-1.856, -3.581e-7
-1.854, -3.564e-7
-1.852, -3.547e-7
-1.850, -3.529e-7
-1.848, -3.509e-7
-1.846, -3.495e-7
-1.844, -3.475e-7
-1.842, -3.457e-7
-1.840, -3.439e-7
-1.838, -3.418e-7
-1.836, -3.407e-7
-1.834, -3.393e-7
-1.832, -3.377e-7
-1.830, -3.364e-7
-1.828, -3.352e-7
-1.826, -3.338e-7
-1.824, -3.324e-7
-1.822, -3.310e-7
-1.820, -3.299e-7
-1.818, -3.287e-7
-1.816, -3.272e-7
-1.814, -3.266e-7
-1.812, -3.253e-7
-1.810, -3.237e-7
-1.808, -3.226e-7
-1.806, -3.211e-7
-1.804, -3.200e-7
-1.802, -3.189e-7
-1.800, -3.177e-7
-1.798, -3.170e-7
-1.796, -3.159e-7
-1.794, -3.148e-7
-1.792, -3.139e-7
-1.790, -3.127e-7
-1.788, -3.120e-7
-1.786, -3.109e-7
-1.784, -3.097e-7
-1.782, -3.095e-7
-1.780, -3.081e-7
-1.778, -3.075e-7
-1.776, -3.068e-7
-1.774, -3.055e-7
-1.772, -3.048e-7
-1.770, -3.037e-7
-1.768, -3.029e-7
-1.766, -3.022e-7
-1.764, -3.016e-7
-1.762, -3.008e-7
-1.760, -2.997e-7
-1.758, -2.992e-7
-1.756, -2.984e-7
-1.754, -2.975e-7
-1.752, -2.966e-7
-1.750, -2.960e-7
-1.748, -2.954e-7
-1.746, -2.946e-7
-1.744, -2.942e-7
-1.742, -2.933e-7
-1.740, -2.930e-7
-1.738, -2.923e-7
-1.736, -2.914e-7
-1.734, -2.909e-7
-1.732, -2.903e-7
-1.730, -2.897e-7
-1.728, -2.892e-7
-1.726, -2.885e-7
-1.724, -2.882e-7
-1.722, -2.876e-7
-1.720, -2.866e-7
-1.718, -2.865e-7
-1.716, -2.857e-7
-1.714, -2.851e-7
-1.712, -2.846e-7
-1.710, -2.839e-7
-1.708, -2.837e-7
-1.706, -2.831e-7
-1.704, -2.824e-7
-1.702, -2.820e-7
-1.700, -2.816e-7
-1.698, -2.811e-7
-1.696, -2.805e-7
-1.694, -2.797e-7
-1.692, -2.796e-7
-1.690, -2.793e-7
-1.688, -2.784e-7
-1.686, -2.785e-7
-1.684, -2.779e-7
-1.682, -2.775e-7
-1.680, -2.770e-7
-1.678, -2.763e-7
-1.676, -2.762e-7
-1.674, -2.757e-7
-1.672, -2.750e-7
-1.670, -2.751e-7
-1.668, -2.743e-7
-1.666, -2.742e-7
-1.664, -2.736e-7
-1.662, -2.729e-7
-1.660, -2.729e-7
-1.658, -2.720e-7
-1.656, -2.720e-7
-1.654, -2.715e-7
-1.652, -2.712e-7
-1.650, -2.705e-7
-1.648, -2.704e-7
-1.646, -2.697e-7
-1.644, -2.694e-7
-1.642, -2.691e-7
-1.640, -2.687e-7
-1.638, -2.690e-7
-1.636, -2.685e-7
-1.634, -2.676e-7
-1.632, -2.676e-7
-1.630, -2.669e-7
-1.628, -2.670e-7
-1.626, -2.668e-7
-1.624, -2.662e-7
-1.622, -2.664e-7
-1.620, -2.658e-7
-1.618, -2.655e-7
-1.616, -2.653e-7
-1.614, -2.647e-7
-1.612, -2.647e-7
-1.610, -2.645e-7
-1.608, -2.640e-7
-1.606, -2.640e-7
-1.604, -2.639e-7
-1.602, -2.633e-7
-1.600, -2.632e-7
-1.598, -2.626e-7
-1.596, -2.627e-7
-1.594, -2.623e-7
-1.592, -2.619e-7
-1.590, -2.622e-7
-1.588, -2.616e-7
-1.586, -2.614e-7
-1.584, -2.613e-7
-1.582, -2.607e-7
-1.580, -2.606e-7
-1.578, -2.604e-7
-1.576, -2.598e-7
-1.574, -2.599e-7
-1.572, -2.597e-7
-1.570, -2.595e-7
-1.568, -2.594e-7
-1.566, -2.587e-7
-1.564, -2.590e-7
-1.562, -2.585e-7
-1.560, -2.583e-7
-1.558, -2.584e-7
-1.556, -2.578e-7
-1.554, -2.577e-7
-1.552, -2.573e-7
-1.550, -2.573e-7
-1.548, -2.571e-7
-1.546, -2.569e-7
-1.544, -2.566e-7
-1.542, -2.563e-7
-1.540, -2.564e-7
-1.538, -2.560e-7
-1.536, -2.560e-7
-1.534, -2.556e-7
-1.532, -2.555e-7
-1.530, -2.554e-7
-1.528, -2.547e-7
-1.526, -2.552e-7
-1.524, -2.549e-7
-1.522, -2.545e-7
-1.520, -2.545e-7
-1.518, -2.536e-7
-1.516, -2.540e-7
-1.514, -2.536e-7
-1.512, -2.533e-7
-1.510, -2.535e-7
-1.508, -2.529e-7
-1.506, -2.531e-7
-1.504, -2.527e-7
-1.502, -2.522e-7
-1.500, -2.524e-7
-1.498, -2.518e-7
-1.496, -2.515e-7
-1.494, -2.517e-7
-1.492, -2.514e-7
-1.490, -2.512e-7
-1.488, -2.514e-7
-1.486, -2.507e-7
-1.484, -2.505e-7
-1.482, -2.502e-7
-1.480, -2.499e-7
-1.478, -2.497e-7
-1.476, -2.497e-7
-1.474, -2.495e-7
-1.472, -2.494e-7
-1.470, -2.491e-7
-1.468, -2.490e-7
-1.466, -2.487e-7
-1.464, -2.478e-7
-1.462, -2.482e-7
-1.460, -2.477e-7
-1.458, -2.479e-7
-1.456, -2.478e-7
-1.454, -2.476e-7
-1.452, -2.477e-7
-1.450, -2.471e-7
-1.448, -2.464e-7
-1.446, -2.465e-7
-1.444, -2.462e-7
-1.442, -2.460e-7
-1.440, -2.463e-7
-1.438, -2.458e-7
-1.436, -2.459e-7
-1.434, -2.456e-7
-1.432, -2.451e-7
-1.430, -2.453e-7
-1.428, -2.448e-7
-1.426, -2.446e-7
-1.424, -2.446e-7
-1.422, -2.443e-7
-1.420, -2.446e-7
-1.418, -2.443e-7
-1.416, -2.439e-7
-1.414, -2.437e-7
-1.412, -2.435e-7
-1.410, -2.433e-7
-1.408, -2.431e-7
-1.406, -2.429e-7
-1.404, -2.431e-7
-1.402, -2.427e-7
-1.400, -2.426e-7
-1.398, -2.425e-7
-1.396, -2.422e-7
-1.394, -2.419e-7
-1.392, -2.417e-7
-1.390, -2.416e-7
-1.388, -2.416e-7
-1.386, -2.415e-7
-1.384, -2.409e-7
-1.382, -2.413e-7
-1.380, -2.408e-7
-1.378, -2.407e-7
-1.376, -2.404e-7
-1.374, -2.401e-7
-1.372, -2.404e-7
-1.370, -2.398e-7
-1.368, -2.397e-7
-1.366, -2.398e-7
-1.364, -2.395e-7
-1.362, -2.393e-7
-1.360, -2.392e-7
-1.358, -2.387e-7
-1.356, -2.388e-7
-1.354, -2.386e-7
-1.352, -2.384e-7
-1.350, -2.381e-7
-1.348, -2.381e-7
-1.346, -2.380e-7
-1.344, -2.378e-7
-1.342, -2.374e-7
-1.340, -2.374e-7
-1.338, -2.370e-7
-1.336, -2.368e-7
-1.334, -2.369e-7
-1.332, -2.368e-7
-1.330, -2.364e-7
-1.328, -2.365e-7
-1.326, -2.360e-7
-1.324, -2.361e-7
-1.322, -2.361e-7
-1.320, -2.354e-7
-1.318, -2.355e-7
-1.316, -2.353e-7
-1.314, -2.351e-7
-1.312, -2.349e-7
-1.310, -2.345e-7
-1.308, -2.347e-7
-1.306, -2.345e-7
-1.304, -2.344e-7
-1.302, -2.343e-7
-1.300, -2.340e-7
-1.298, -2.338e-7
-1.296, -2.335e-7
-1.294, -2.334e-7
-1.292, -2.333e-7
-1.290, -2.331e-7
-1.288, -2.325e-7
-1.286, -2.330e-7
-1.284, -2.329e-7
-1.282, -2.325e-7
-1.280, -2.322e-7
-1.278, -2.320e-7
-1.276, -2.320e-7
-1.274, -2.318e-7
-1.272, -2.314e-7
-1.270, -2.317e-7
-1.268, -2.313e-7
-1.266, -2.315e-7
-1.264, -2.313e-7
-1.262, -2.309e-7
-1.260, -2.308e-7
-1.258, -2.305e-7
-1.256, -2.303e-7
-1.254, -2.304e-7
-1.252, -2.303e-7
-1.250, -2.304e-7
-1.248, -2.303e-7
-1.246, -2.300e-7
-1.244, -2.298e-7
-1.242, -2.294e-7
-1.240, -2.291e-7
-1.238, -2.292e-7
-1.236, -2.291e-7
-1.234, -2.290e-7
-1.232, -2.291e-7
-1.230, -2.289e-7
-1.228, -2.288e-7
-1.226, -2.287e-7
-1.224, -2.279e-7
-1.222, -2.280e-7
-1.220, -2.278e-7
-1.218, -2.279e-7
-1.216, -2.279e-7
-1.214, -2.277e-7
-1.212, -2.279e-7
-1.210, -2.275e-7
-1.208, -2.271e-7
-1.206, -2.269e-7
-1.204, -2.264e-7
-1.202, -2.267e-7
-1.200, -2.264e-7
-1.198, -2.265e-7
-1.196, -2.266e-7
-1.194, -2.264e-7
-1.192, -2.257e-7
-1.190, -2.254e-7
-1.188, -2.251e-7
-1.186, -2.248e-7
-1.184, -2.251e-7
-1.182, -2.246e-7
-1.180, -2.249e-7
-1.178, -2.249e-7
-1.176, -2.241e-7
-1.174, -2.241e-7
-1.172, -2.235e-7
-1.170, -2.230e-7
-1.168, -2.233e-7
-1.166, -2.228e-7
-1.164, -2.232e-7
-1.162, -2.229e-7
-1.160, -2.224e-7
-1.158, -2.224e-7
-1.156, -2.218e-7
-1.154, -2.214e-7
-1.152, -2.213e-7
-1.150, -2.209e-7
-1.148, -2.213e-7
-1.146, -2.209e-7
-1.144, -2.207e-7
-1.142, -2.207e-7
-1.140, -2.202e-7
-1.138, -2.200e-7
-1.136, -2.195e-7
-1.134, -2.193e-7
-1.132, -2.193e-7
-1.130, -2.193e-7
-1.128, -2.189e-7
-1.126, -2.193e-7
-1.124, -2.187e-7
-1.122, -2.183e-7
-1.120, -2.180e-7
-1.118, -2.173e-7
-1.116, -2.177e-7
-1.114, -2.174e-7
-1.112, -2.171e-7
-1.110, -2.175e-7
-1.108, -2.170e-7
-1.106, -2.168e-7
-1.104, -2.166e-7
-1.102, -2.159e-7
-1.100, -2.162e-7
-1.098, -2.156e-7
-1.096, -2.156e-7
-1.094, -2.156e-7
-1.092, -2.156e-7
-1.090, -2.152e-7
-1.088, -2.149e-7
-1.086, -2.146e-7
-1.084, -2.145e-7
-1.082, -2.142e-7
-1.080, -2.138e-7
-1.078, -2.141e-7
-1.076, -2.140e-7
-1.074, -2.138e-7
-1.072, -2.137e-7
-1.070, -2.130e-7
-1.068, -2.129e-7
-1.066, -2.127e-7
-1.064, -2.122e-7
-1.062, -2.125e-7
-1.060, -2.123e-7
-1.058, -2.124e-7
-1.056, -2.122e-7
-1.054, -2.117e-7
-1.052, -2.117e-7
-1.050, -2.113e-7
-1.048, -2.109e-7
-1.046, -2.110e-7
-1.044, -2.109e-7
-1.042, -2.110e-7
-1.040, -2.110e-7
-1.038, -2.105e-7
-1.036, -2.106e-7
-1.034, -2.101e-7
-1.032, -2.096e-7
-1.030, -2.097e-7
-1.028, -2.095e-7
-1.026, -2.094e-7
-1.024, -2.095e-7
-1.022, -2.093e-7
-1.020, -2.094e-7
-1.018, -2.088e-7
-1.016, -2.083e-7
-1.014, -2.085e-7
-1.012, -2.082e-7
-1.010, -2.082e-7
-1.008, -2.082e-7
-1.006, -2.082e-7
-1.004, -2.081e-7
-1.002, -2.079e-7
-1.000, -2.074e-7
-0.998, -2.074e-7
-0.996, -2.071e-7
-0.994, -2.068e-7
-0.992, -2.070e-7
-0.990, -2.067e-7
-0.988, -2.072e-7
-0.986, -2.066e-7
-0.984, -2.063e-7
-0.982, -2.061e-7
-0.980, -2.059e-7
-0.978, -2.056e-7
-0.976, -2.055e-7
-0.974, -2.055e-7
-0.972, -2.056e-7
-0.970, -2.057e-7
-0.968, -2.052e-7
-0.966, -2.050e-7
-0.964, -2.047e-7
-0.962, -2.044e-7
-0.960, -2.041e-7
-0.958, -2.039e-7
-0.956, -2.042e-7
-0.954, -2.040e-7
-0.952, -2.038e-7
-0.950, -2.038e-7
-0.948, -2.035e-7
-0.946, -2.032e-7
-0.944, -2.031e-7
-0.942, -2.026e-7
-0.940, -2.028e-7
-0.938, -2.026e-7
-0.936, -2.023e-7
-0.934, -2.024e-7
-0.932, -2.019e-7
-0.930, -2.018e-7
-0.928, -2.015e-7
-0.926, -2.011e-7
-0.924, -2.012e-7
-0.922, -2.011e-7
-0.920, -2.008e-7
-0.918, -2.007e-7
-0.916, -2.005e-7
-0.914, -2.003e-7
-0.912, -1.998e-7
-0.910, -1.995e-7
-0.908, -1.996e-7
-0.906, -1.992e-7
-0.904, -1.987e-7
-0.902, -1.987e-7
-0.900, -1.987e-7
-0.898, -1.985e-7
-0.896, -1.983e-7
-0.894, -1.980e-7
-0.892, -1.976e-7
-0.890, -1.974e-7
-0.888, -1.968e-7
-0.886, -1.971e-7
-0.884, -1.968e-7
-0.882, -1.964e-7
-0.880, -1.966e-7
-0.878, -1.962e-7
-0.876, -1.961e-7
-0.874, -1.959e-7
-0.872, -1.953e-7
-0.870, -1.953e-7
-0.868, -1.952e-7
-0.866, -1.948e-7
-0.864, -1.949e-7
-0.862, -1.941e-7
-0.860, -1.946e-7
-0.858, -1.941e-7
-0.856, -1.939e-7
-0.854, -1.936e-7
-0.852, -1.934e-7
-0.850, -1.931e-7
-0.848, -1.930e-7
-0.846, -1.927e-7
-0.844, -1.927e-7
-0.842, -1.923e-7
-0.840, -1.919e-7
-0.838, -1.920e-7
-0.836, -1.916e-7
-0.834, -1.914e-7
-0.832, -1.911e-7
-0.830, -1.910e-7
-0.828, -1.911e-7
-0.826, -1.908e-7
-0.824, -1.904e-7
-0.822, -1.903e-7
-0.820, -1.899e-7
-0.818, -1.894e-7
-0.816, -1.895e-7
-0.814, -1.891e-7
-0.812, -1.891e-7
-0.810, -1.889e-7
-0.808, -1.882e-7
-0.806, -1.885e-7
-0.804, -1.878e-7
-0.802, -1.879e-7
-0.800, -1.876e-7
-0.798, -1.869e-7
-0.796, -1.872e-7
-0.794, -1.868e-7
-0.792, -1.865e-7
-0.790, -1.863e-7
-0.788, -1.859e-7
-0.786, -1.856e-7
-0.784, -1.853e-7
-0.782, -1.849e-7
-0.780, -1.849e-7
-0.778, -1.846e-7
-0.776, -1.842e-7
-0.774, -1.840e-7
-0.772, -1.838e-7
-0.770, -1.835e-7
-0.768, -1.832e-7
-0.766, -1.825e-7
-0.764, -1.826e-7
-0.762, -1.824e-7
-0.760, -1.818e-7
-0.758, -1.820e-7
-0.756, -1.816e-7
-0.754, -1.812e-7
-0.752, -1.811e-7
-0.750, -1.804e-7
-0.748, -1.804e-7
-0.746, -1.800e-7
-0.744, -1.794e-7
-0.742, -1.794e-7
-0.740, -1.791e-7
-0.738, -1.789e-7
-0.736, -1.785e-7
-0.734, -1.780e-7
-0.732, -1.777e-7
-0.730, -1.772e-7
-0.728, -1.766e-7
-0.726, -1.764e-7
-0.724, -1.758e-7
-0.722, -1.755e-7
-0.720, -1.752e-7
-0.718, -1.744e-7
-0.716, -1.743e-7
-0.714, -1.737e-7
-0.712, -1.726e-7
-0.710, -1.723e-7
-0.708, -1.718e-7
-0.706, -1.712e-7
-0.704, -1.709e-7
-0.702, -1.700e-7
-0.700, -1.701e-7
-0.698, -1.693e-7
-0.696, -1.687e-7
-0.694, -1.683e-7
-0.692, -1.676e-7
-0.690, -1.670e-7
-0.688, -1.666e-7
-0.686, -1.660e-7
-0.684, -1.657e-7
-0.682, -1.651e-7
-0.680, -1.641e-7
-0.678, -1.638e-7
-0.676, -1.631e-7
-0.674, -1.623e-7
-0.672, -1.617e-7
-0.670, -1.611e-7
-0.668, -1.605e-7
-0.666, -1.597e-7
-0.664, -1.589e-7
-0.662, -1.587e-7
-0.660, -1.576e-7
-0.658, -1.570e-7
-0.656, -1.563e-7
-0.654, -1.552e-7
-0.652, -1.550e-7
-0.650, -1.542e-7
-0.648, -1.533e-7
-0.646, -1.527e-7
-0.644, -1.517e-7
-0.642, -1.508e-7
-0.640, -1.498e-7
-0.638, -1.487e-7
-0.636, -1.480e-7
-0.634, -1.470e-7
-0.632, -1.458e-7
-0.630, -1.452e-7
-0.628, -1.440e-7
-0.626, -1.430e-7
-0.624, -1.423e-7
-0.622, -1.406e-7
-0.620, -1.400e-7
-0.618, -1.389e-7
-0.616, -1.376e-7
-0.614, -1.366e-7
-0.612, -1.355e-7
-0.610, -1.344e-7
-0.608, -1.333e-7
-0.606, -1.320e-7
-0.604, -1.312e-7
-0.602, -1.301e-7
-0.600, -1.288e-7
-0.598, -1.279e-7
-0.596, -1.266e-7
-0.594, -1.250e-7
-0.592, -1.236e-7
-0.590, -1.219e-7
-0.588, -1.208e-7
-0.586, -1.195e-7
-0.584, -1.178e-7
-0.582, -1.166e-7
-0.580, -1.152e-7
-0.578, -1.136e-7
-0.576, -1.122e-7
-0.574, -1.104e-7
-0.572, -1.093e-7
-0.570, -1.078e-7
-0.568, -1.062e-7
-0.566, -1.050e-7
-0.564, -1.032e-7
-0.562, -1.018e-7
-0.560, -1.003e-7
-0.558, -9.828e-8
-0.556, -9.690e-8
-0.554, -9.515e-8
-0.552, -9.323e-8
-0.550, -9.155e-8
-0.548, -8.995e-8
-0.546, -8.833e-8
-0.544, -8.655e-8
-0.542, -8.480e-8
-0.540, -8.357e-8
-0.538, -8.210e-8
-0.536, -8.034e-8
-0.534, -7.898e-8
-0.532, -7.713e-8
-0.530, -7.504e-8
-0.528, -7.349e-8
-0.526, -7.134e-8
-0.524, -7.009e-8
-0.522, -6.841e-8
-0.520, -6.664e-8
-0.518, -6.505e-8
-0.516, -6.340e-8
-0.514, -6.166e-8
-0.512, -6.047e-8
-0.510, -5.836e-8
-0.508, -5.711e-8
-0.506, -5.527e-8
-0.504, -5.325e-8
-0.502, -5.183e-8
-0.500, -4.987e-8
-0.498, -4.815e-8
-0.496, -4.687e-8
-0.494, -4.483e-8
-0.492, -4.346e-8
-0.490, -4.173e-8
-0.488, -3.979e-8
-0.486, -3.839e-8
-0.484, -3.660e-8
-0.482, -3.519e-8
-0.480, -3.387e-8
-0.478, -3.238e-8
-0.476, -3.130e-8
-0.474, -2.975e-8
-0.472, -2.785e-8
-0.470, -2.671e-8
-0.468, -2.483e-8
-0.466, -2.345e-8
-0.464, -2.200e-8
-0.462, -2.039e-8
-0.460, -1.941e-8
-0.458, -1.815e-8
-0.456, -1.646e-8
-0.454, -1.537e-8
-0.452, -1.385e-8
-0.450, -1.254e-8
-0.448, -1.125e-8
-0.446, -9.744e-9
-0.444, -9.077e-9
-0.442, -7.655e-9
-0.440, -6.429e-9
-0.438, -5.488e-9
-0.436, -4.174e-9
-0.434, -3.075e-9
-0.432, -1.810e-9
-0.430, -4.962e-10
-0.428, 3.275e-10
-0.426, 1.465e-9
-0.424, 2.760e-9
-0.422, 3.456e-9
-0.420, 4.623e-9
-0.418, 5.554e-9
-0.416, 6.457e-9
-0.414, 7.673e-9
-0.412, 8.349e-9
-0.410, 9.271e-9
-0.408, 1.064e-8
-0.406, 1.124e-8
-0.404, 1.264e-8
-0.402, 1.330e-8
-0.400, 1.414e-8
-0.398, 1.514e-8
-0.396, 1.554e-8
-0.394, 1.617e-8
-0.392, 1.719e-8
-0.390, 1.764e-8
-0.388, 1.847e-8
-0.386, 1.927e-8
-0.384, 2.020e-8
-0.382, 2.109e-8
-0.380, 2.158e-8
-0.378, 2.229e-8
-0.376, 2.332e-8
-0.374, 2.364e-8
-0.372, 2.469e-8
-0.370, 2.544e-8
-0.368, 2.574e-8
-0.366, 2.679e-8
-0.364, 2.701e-8
-0.362, 2.762e-8
-0.360, 2.851e-8
-0.358, 2.884e-8
-0.356, 2.937e-8
-0.354, 3.003e-8
-0.352, 3.058e-8
-0.350, 3.121e-8
-0.348, 3.129e-8
-0.346, 3.203e-8
-0.344, 3.285e-8
-0.342, 3.306e-8
-0.340, 3.366e-8
-0.338, 3.430e-8
-0.336, 3.469e-8
-0.334, 3.532e-8
-0.332, 3.559e-8
-0.330, 3.599e-8
-0.328, 3.697e-8
-0.326, 3.693e-8
-0.324, 3.747e-8
-0.322, 3.790e-8
-0.320, 3.827e-8
-0.318, 3.882e-8
-0.316, 3.899e-8
-0.314, 3.943e-8
-0.312, 3.999e-8
-0.310, 4.001e-8
-0.308, 4.057e-8
-0.306, 4.078e-8
-0.304, 4.120e-8
-0.302, 4.171e-8
-0.300, 4.195e-8
-0.298, 4.220e-8
-0.296, 4.279e-8
-0.294, 4.303e-8
-0.292, 4.342e-8
-0.290, 4.384e-8
-0.288, 4.405e-8
-0.286, 4.470e-8
-0.284, 4.466e-8
-0.282, 4.506e-8
-0.280, 4.571e-8
-0.278, 4.567e-8
-0.276, 4.617e-8
-0.274, 4.639e-8
-0.272, 4.675e-8
-0.270, 4.737e-8
-0.268, 4.728e-8
-0.266, 4.763e-8
-0.264, 4.831e-8
-0.262, 4.836e-8
-0.260, 4.871e-8
-0.258, 4.894e-8
-0.256, 4.911e-8
-0.254, 4.956e-8
-0.252, 4.966e-8
-0.250, 5.002e-8
-0.248, 5.045e-8
-0.246, 5.041e-8
-0.244, 5.082e-8
-0.242, 5.110e-8
-0.240, 5.121e-8
-0.238, 5.172e-8
-0.236, 5.156e-8
-0.234, 5.197e-8
-0.232, 5.230e-8
-0.230, 5.233e-8
-0.228, 5.272e-8
-0.226, 5.279e-8
-0.224, 5.306e-8
-0.222, 5.344e-8
-0.220, 5.340e-8
-0.218, 5.376e-8
-0.216, 5.424e-8
-0.214, 5.405e-8
-0.212, 5.440e-8
-0.210, 5.465e-8
-0.208, 5.483e-8
-0.206, 5.522e-8
-0.204, 5.531e-8
-0.202, 5.547e-8
-0.200, 5.597e-8
-0.198, 5.599e-8
-0.196, 5.631e-8
-0.194, 5.641e-8
-0.192, 5.655e-8
-0.190, 5.700e-8
-0.188, 5.683e-8
-0.186, 5.718e-8
-0.184, 5.765e-8
-0.182, 5.748e-8
-0.180, 5.787e-8
-0.178, 5.814e-8
-0.176, 5.825e-8
-0.174, 5.865e-8
-0.172, 5.867e-8
-0.170, 5.886e-8
-0.168, 5.938e-8
-0.166, 5.936e-8
-0.164, 5.952e-8
-0.162, 5.984e-8
-0.160, 5.997e-8
-0.158, 6.039e-8
-0.156, 6.015e-8
-0.154, 6.055e-8
-0.152, 6.092e-8
-0.150, 6.082e-8
-0.148, 6.122e-8
-0.146, 6.148e-8
-0.144, 6.141e-8
-0.142, 6.198e-8
-0.140, 6.197e-8
-0.138, 6.195e-8
-0.136, 6.247e-8
-0.134, 6.252e-8
-0.132, 6.260e-8
-0.130, 6.271e-8
-0.128, 6.287e-8
-0.126, 6.326e-8
-0.124, 6.321e-8
-0.122, 6.340e-8
-0.120, 6.377e-8
-0.118, 6.355e-8
-0.116, 6.378e-8
-0.114, 6.410e-8
-0.112, 6.396e-8
-0.110, 6.436e-8
-0.108, 6.432e-8
-0.106, 6.434e-8
-0.104, 6.478e-8
-0.102, 6.439e-8
-0.100, 6.485e-8
-0.098, 6.502e-8
-0.096, 6.513e-8
-0.094, 6.533e-8
-0.092, 6.539e-8
-0.090, 6.564e-8
-0.088, 6.593e-8
-0.086, 6.578e-8
-0.084, 6.619e-8
-0.082, 6.618e-8
-0.080, 6.627e-8
-0.078, 6.670e-8
-0.076, 6.649e-8
-0.074, 6.672e-8
-0.072, 6.728e-8
-0.070, 6.726e-8
-0.068, 6.736e-8
-0.066, 6.777e-8
-0.064, 6.773e-8
-0.062, 6.808e-8
-0.060, 6.787e-8
-0.058, 6.829e-8
-0.056, 6.887e-8
-0.054, 6.839e-8
-0.052, 6.894e-8
-0.050, 6.929e-8
-0.048, 6.924e-8
-0.046, 6.980e-8
-0.044, 6.965e-8
-0.042, 6.989e-8
-0.040, 7.027e-8
-0.038, 7.004e-8
-0.036, 7.045e-8
-0.034, 7.073e-8
-0.032, 7.069e-8
-0.030, 7.134e-8
-0.028, 7.089e-8
-0.026, 7.132e-8
-0.024, 7.173e-8
-0.022, 7.126e-8
-0.020, 7.179e-8
-0.018, 7.204e-8
-0.016, 7.201e-8
-0.014, 7.260e-8
-0.012, 7.236e-8
-0.010, 7.257e-8
-0.008, 7.300e-8
-0.006, 7.286e-8
-0.004, 7.318e-8
-0.002, 7.327e-8
-0.001, 7.295e-8