File: inst/extdata/electrolysis/electrolysis_example.txt
June 15, 2015   15:19:12
Bulk Electrolysis with Coulometry
File: electrolysis
Data Source:  Experiment
Instrument Model:  CHI601C
Header:
Note:

Init E (V) = -1.7
End Current Ratio (%) = 0
Data Storage Interval (s) = 1

Time/sec, Charge/C, Current/A

1.000, 1.060e-2, 1.060e-2
8.000, 7.385e-2, 8.877e-3
15.000, 1.357e-1, 8.829e-3
22.000, 1.976e-1, 8.840e-3
29.000, 2.594e-1, 8.827e-3
36.000, 3.211e-1, 8.818e-3
43.000, 3.828e-1, 8.780e-3
50.000, 4.444e-1, 8.814e-3
57.000, 5.060e-1, 8.782e-3
64.000, 5.674e-1, 8.789e-3
71.000, 6.289e-1, 8.780e-3
78.000, 6.903e-1, 8.783e-3
85.000, 7.518e-1, 8.792e-3
92.000, 8.133e-1, 8.786e-3
99.000, 8.748e-1, 8.775e-3
106.000, 9.362e-1, 8.773e-3
113.000, 9.976e-1, 8.762e-3
120.000, 1.059e+0, 8.772e-3
127.000, 1.121e+0, 8.774e-3
134.000, 1.182e+0, 8.782e-3
141.000, 1.243e+0, 8.778e-3
148.000, 1.305e+0, 8.775e-3
155.000, 1.366e+0, 8.769e-3
162.000, 1.428e+0, 8.774e-3
169.000, 1.489e+0, 8.779e-3
176.000, 1.551e+0, 8.783e-3
183.000, 1.612e+0, 8.767e-3
190.000, 1.673e+0, 8.765e-3
197.000, 1.735e+0, 8.765e-3
204.000, 1.796e+0, 8.748e-3
211.000, 1.857e+0, 8.747e-3
218.000, 1.919e+0, 8.762e-3
225.000, 1.980e+0, 8.756e-3
232.000, 2.041e+0, 8.756e-3
239.000, 2.103e+0, 8.791e-3
246.000, 2.164e+0, 8.755e-3
253.000, 2.226e+0, 8.760e-3
260.000, 2.287e+0, 8.776e-3
267.000, 2.348e+0, 8.763e-3
274.000, 2.409e+0, 8.760e-3
281.000, 2.471e+0, 8.773e-3
288.000, 2.532e+0, 8.761e-3
295.000, 2.593e+0, 8.764e-3
302.000, 2.655e+0, 8.757e-3
309.000, 2.716e+0, 8.760e-3
316.000, 2.777e+0, 8.757e-3
323.000, 2.839e+0, 8.773e-3
330.000, 2.900e+0, 8.766e-3
337.000, 2.961e+0, 8.764e-3
344.000, 3.023e+0, 8.755e-3
351.000, 3.084e+0, 8.768e-3
358.000, 3.145e+0, 8.757e-3
365.000, 3.207e+0, 8.770e-3
372.000, 3.268e+0, 8.767e-3
379.000, 3.329e+0, 8.755e-3
386.000, 3.390e+0, 8.762e-3
393.000, 3.452e+0, 8.745e-3
400.000, 3.513e+0, 8.760e-3
407.000, 3.574e+0, 8.754e-3
414.000, 3.635e+0, 8.742e-3
421.000, 3.697e+0, 8.765e-3
428.000, 3.758e+0, 8.740e-3
435.000, 3.819e+0, 8.745e-3
442.000, 3.880e+0, 8.742e-3
449.000, 3.942e+0, 8.759e-3
456.000, 4.003e+0, 8.744e-3
463.000, 4.064e+0, 8.754e-3
470.000, 4.125e+0, 8.753e-3
477.000, 4.187e+0, 8.721e-3
484.000, 4.248e+0, 8.754e-3
491.000, 4.309e+0, 8.729e-3
498.000, 4.370e+0, 8.728e-3
505.000, 4.431e+0, 8.741e-3
512.000, 4.493e+0, 8.756e-3
519.000, 4.554e+0, 8.745e-3
526.000, 4.615e+0, 8.744e-3
533.000, 4.676e+0, 8.741e-3
540.000, 4.738e+0, 8.761e-3
547.000, 4.799e+0, 8.737e-3
554.000, 4.860e+0, 8.735e-3
561.000, 4.921e+0, 8.734e-3
568.000, 4.982e+0, 8.744e-3
575.000, 5.044e+0, 8.757e-3
582.000, 5.105e+0, 8.750e-3
589.000, 5.166e+0, 8.734e-3
596.000, 5.227e+0, 8.758e-3
603.000, 5.288e+0, 8.742e-3
610.000, 5.350e+0, 8.742e-3
617.000, 5.411e+0, 8.747e-3
624.000, 5.472e+0, 8.731e-3
631.000, 5.533e+0, 8.725e-3
638.000, 5.594e+0, 8.714e-3
645.000, 5.655e+0, 8.738e-3
652.000, 5.716e+0, 8.734e-3
659.000, 5.777e+0, 8.712e-3
666.000, 5.839e+0, 8.742e-3
673.000, 5.900e+0, 8.734e-3
680.000, 5.961e+0, 8.734e-3
687.000, 6.022e+0, 8.723e-3
694.000, 6.083e+0, 8.735e-3
701.000, 6.144e+0, 8.721e-3
708.000, 6.206e+0, 8.735e-3
715.000, 6.267e+0, 8.736e-3
722.000, 6.328e+0, 8.741e-3
729.000, 6.389e+0, 8.739e-3
736.000, 6.450e+0, 8.727e-3
743.000, 6.511e+0, 8.726e-3
750.000, 6.572e+0, 8.733e-3
757.000, 6.633e+0, 8.734e-3
764.000, 6.695e+0, 8.737e-3
771.000, 6.756e+0, 8.727e-3
778.000, 6.817e+0, 8.732e-3
785.000, 6.878e+0, 8.728e-3
792.000, 6.939e+0, 8.731e-3
799.000, 7.000e+0, 8.725e-3
806.000, 7.061e+0, 8.731e-3
813.000, 7.122e+0, 8.732e-3
820.000, 7.183e+0, 8.739e-3
827.000, 7.244e+0, 8.731e-3
834.000, 7.306e+0, 8.717e-3
841.000, 7.367e+0, 8.751e-3
848.000, 7.428e+0, 8.713e-3
855.000, 7.489e+0, 8.738e-3
862.000, 7.550e+0, 8.734e-3
869.000, 7.611e+0, 8.745e-3
876.000, 7.672e+0, 8.733e-3
883.000, 7.733e+0, 8.737e-3
890.000, 7.794e+0, 8.732e-3
897.000, 7.855e+0, 8.718e-3
904.000, 7.917e+0, 8.719e-3
911.000, 7.978e+0, 8.702e-3
918.000, 8.039e+0, 8.724e-3
925.000, 8.100e+0, 8.728e-3
932.000, 8.161e+0, 8.727e-3
939.000, 8.222e+0, 8.728e-3
946.000, 8.283e+0, 8.722e-3
953.000, 8.344e+0, 8.726e-3
960.000, 8.405e+0, 8.720e-3
967.000, 8.466e+0, 8.745e-3
974.000, 8.527e+0, 8.714e-3
981.000, 8.589e+0, 8.727e-3
988.000, 8.650e+0, 8.722e-3
995.000, 8.711e+0, 8.732e-3
1002.000, 8.772e+0, 8.710e-3
1009.000, 8.833e+0, 8.723e-3
1016.000, 8.894e+0, 8.712e-3
1023.000, 8.955e+0, 8.730e-3
1030.000, 9.016e+0, 8.727e-3
1037.000, 9.077e+0, 8.731e-3
1044.000, 9.138e+0, 8.724e-3
1051.000, 9.199e+0, 8.731e-3
1058.000, 9.260e+0, 8.722e-3
1065.000, 9.321e+0, 8.736e-3
1072.000, 9.382e+0, 8.728e-3
1079.000, 9.443e+0, 8.720e-3
1086.000, 9.504e+0, 8.712e-3
1093.000, 9.565e+0, 8.722e-3
1100.000, 9.626e+0, 8.720e-3
1107.000, 9.687e+0, 8.717e-3
1114.000, 9.748e+0, 8.731e-3
1121.000, 9.809e+0, 8.707e-3
1128.000, 9.870e+0, 8.714e-3
1135.000, 9.931e+0, 8.720e-3
1142.000, 9.992e+0, 8.706e-3
1149.000, 1.005e+1, 8.717e-3
1156.000, 1.011e+1, 8.710e-3
1163.000, 1.018e+1, 8.724e-3
1170.000, 1.024e+1, 8.724e-3
1177.000, 1.030e+1, 8.699e-3
1184.000, 1.036e+1, 8.695e-3
1191.000, 1.042e+1, 8.711e-3
1198.000, 1.048e+1, 8.705e-3
1205.000, 1.054e+1, 8.717e-3
1212.000, 1.060e+1, 8.704e-3
1219.000, 1.066e+1, 8.722e-3
1226.000, 1.072e+1, 8.707e-3
1233.000, 1.079e+1, 8.712e-3
1240.000, 1.085e+1, 8.715e-3
1247.000, 1.091e+1, 8.728e-3
1254.000, 1.097e+1, 8.707e-3
1261.000, 1.103e+1, 8.712e-3
1268.000, 1.109e+1, 8.719e-3
1275.000, 1.115e+1, 8.717e-3
1282.000, 1.121e+1, 8.705e-3
1289.000, 1.127e+1, 8.708e-3
1296.000, 1.133e+1, 8.720e-3
1303.000, 1.139e+1, 8.707e-3
1310.000, 1.146e+1, 8.709e-3
1317.000, 1.152e+1, 8.702e-3
1324.000, 1.158e+1, 8.686e-3
1331.000, 1.164e+1, 8.713e-3
1338.000, 1.170e+1, 8.708e-3
1345.000, 1.176e+1, 8.715e-3
1352.000, 1.182e+1, 8.709e-3
1359.000, 1.188e+1, 8.713e-3
1366.000, 1.194e+1, 8.698e-3
1373.000, 1.200e+1, 8.700e-3
1380.000, 1.207e+1, 8.697e-3
1387.000, 1.213e+1, 8.706e-3
1394.000, 1.219e+1, 8.717e-3
1401.000, 1.225e+1, 8.713e-3
1408.000, 1.231e+1, 8.692e-3
1415.000, 1.237e+1, 8.715e-3
1422.000, 1.243e+1, 8.714e-3
1429.000, 1.249e+1, 8.697e-3
1436.000, 1.255e+1, 8.696e-3
1443.000, 1.261e+1, 8.709e-3
1450.000, 1.267e+1, 8.699e-3
1457.000, 1.274e+1, 8.694e-3
1464.000, 1.280e+1, 8.690e-3
1471.000, 1.286e+1, 8.706e-3
1478.000, 1.292e+1, 8.698e-3
1485.000, 1.298e+1, 8.687e-3
1492.000, 1.304e+1, 8.709e-3
1499.000, 1.310e+1, 8.691e-3
1506.000, 1.316e+1, 8.685e-3
1513.000, 1.322e+1, 8.703e-3
1520.000, 1.328e+1, 8.712e-3
1527.000, 1.334e+1, 8.700e-3
1534.000, 1.341e+1, 8.702e-3
1541.000, 1.347e+1, 8.708e-3
1548.000, 1.353e+1, 8.713e-3
1555.000, 1.359e+1, 8.710e-3
1562.000, 1.365e+1, 8.691e-3
1569.000, 1.371e+1, 8.693e-3
1576.000, 1.377e+1, 8.693e-3
1583.000, 1.383e+1, 8.724e-3
1590.000, 1.389e+1, 8.711e-3
1597.000, 1.395e+1, 8.725e-3
1604.000, 1.401e+1, 8.711e-3
1611.000, 1.408e+1, 8.700e-3
1618.000, 1.414e+1, 8.709e-3
1625.000, 1.420e+1, 8.699e-3
1632.000, 1.426e+1, 8.737e-3
1639.000, 1.432e+1, 8.719e-3
1646.000, 1.438e+1, 8.694e-3
1653.000, 1.444e+1, 8.688e-3
1660.000, 1.450e+1, 8.712e-3
1667.000, 1.456e+1, 8.687e-3
1674.000, 1.462e+1, 8.707e-3
1681.000, 1.468e+1, 8.705e-3
1688.000, 1.475e+1, 8.693e-3
1695.000, 1.481e+1, 8.691e-3
1702.000, 1.487e+1, 8.687e-3
1709.000, 1.493e+1, 8.701e-3
1716.000, 1.499e+1, 8.703e-3
1723.000, 1.505e+1, 8.696e-3
1730.000, 1.511e+1, 8.716e-3
1737.000, 1.517e+1, 8.703e-3
1744.000, 1.523e+1, 8.694e-3
1751.000, 1.529e+1, 8.689e-3
1758.000, 1.535e+1, 8.701e-3
1765.000, 1.542e+1, 8.700e-3
1772.000, 1.548e+1, 8.690e-3
1779.000, 1.554e+1, 8.710e-3
1786.000, 1.560e+1, 8.692e-3
1793.000, 1.566e+1, 8.701e-3
1800.000, 1.572e+1, 8.701e-3
1807.000, 1.578e+1, 8.704e-3
1814.000, 1.584e+1, 8.688e-3
1821.000, 1.590e+1, 8.703e-3
1828.000, 1.596e+1, 8.686e-3
1835.000, 1.602e+1, 8.710e-3
1842.000, 1.609e+1, 8.701e-3
1849.000, 1.615e+1, 8.690e-3
1856.000, 1.621e+1, 8.679e-3
1863.000, 1.627e+1, 8.706e-3
1870.000, 1.633e+1, 8.693e-3
1877.000, 1.639e+1, 8.688e-3
1884.000, 1.645e+1, 8.696e-3
1891.000, 1.651e+1, 8.680e-3
1898.000, 1.657e+1, 8.700e-3
1905.000, 1.663e+1, 8.686e-3
1912.000, 1.669e+1, 8.708e-3
1919.000, 1.675e+1, 8.694e-3
1926.000, 1.682e+1, 8.675e-3
1933.000, 1.688e+1, 8.689e-3
1940.000, 1.694e+1, 8.684e-3
1947.000, 1.700e+1, 8.694e-3
1954.000, 1.706e+1, 8.695e-3
1961.000, 1.712e+1, 8.682e-3
1968.000, 1.718e+1, 8.710e-3
1975.000, 1.724e+1, 8.687e-3
1982.000, 1.730e+1, 8.692e-3
1989.000, 1.736e+1, 8.699e-3
1996.000, 1.742e+1, 8.689e-3
2003.000, 1.748e+1, 8.701e-3
2010.000, 1.755e+1, 8.694e-3
2017.000, 1.761e+1, 8.702e-3
2024.000, 1.767e+1, 8.699e-3
2031.000, 1.773e+1, 8.686e-3
2038.000, 1.779e+1, 8.690e-3
2045.000, 1.785e+1, 8.696e-3
2052.000, 1.791e+1, 8.695e-3
2059.000, 1.797e+1, 8.689e-3
2066.000, 1.803e+1, 8.690e-3
2073.000, 1.809e+1, 8.708e-3
2080.000, 1.815e+1, 8.705e-3
2087.000, 1.822e+1, 8.693e-3
2094.000, 1.828e+1, 8.695e-3
2101.000, 1.834e+1, 8.697e-3
2108.000, 1.840e+1, 8.710e-3
2115.000, 1.846e+1, 8.712e-3
2122.000, 1.852e+1, 8.701e-3
2129.000, 1.858e+1, 8.686e-3
2136.000, 1.864e+1, 8.718e-3
2143.000, 1.870e+1, 8.707e-3
2150.000, 1.876e+1, 8.696e-3
2157.000, 1.882e+1, 8.701e-3
2164.000, 1.889e+1, 8.680e-3
2171.000, 1.895e+1, 8.709e-3
2178.000, 1.901e+1, 8.692e-3
2185.000, 1.907e+1, 8.697e-3
2192.000, 1.913e+1, 8.703e-3
2199.000, 1.919e+1, 8.703e-3
2206.000, 1.925e+1, 8.694e-3
2213.000, 1.931e+1, 8.693e-3
2220.000, 1.937e+1, 8.707e-3
2227.000, 1.943e+1, 8.691e-3
2234.000, 1.949e+1, 8.708e-3
2241.000, 1.956e+1, 8.692e-3
2248.000, 1.962e+1, 8.699e-3
2255.000, 1.968e+1, 8.701e-3
2262.000, 1.974e+1, 8.694e-3
2269.000, 1.980e+1, 8.703e-3
2276.000, 1.986e+1, 8.708e-3
2283.000, 1.992e+1, 8.699e-3
2290.000, 1.998e+1, 8.714e-3
2297.000, 2.004e+1, 8.718e-3
2304.000, 2.010e+1, 8.712e-3
2311.000, 2.017e+1, 8.721e-3
2318.000, 2.023e+1, 8.713e-3
2325.000, 2.029e+1, 8.721e-3
2332.000, 2.035e+1, 8.719e-3
2339.000, 2.041e+1, 8.713e-3
2346.000, 2.047e+1, 8.710e-3
2353.000, 2.053e+1, 8.723e-3
2360.000, 2.059e+1, 8.695e-3
2367.000, 2.065e+1, 8.708e-3
2374.000, 2.071e+1, 8.716e-3
2381.000, 2.077e+1, 8.680e-3
2388.000, 2.084e+1, 8.696e-3
2395.000, 2.090e+1, 8.713e-3
2402.000, 2.096e+1, 8.699e-3
2409.000, 2.102e+1, 8.697e-3
2416.000, 2.108e+1, 8.707e-3
2423.000, 2.114e+1, 8.697e-3
2430.000, 2.120e+1, 8.687e-3
2437.000, 2.126e+1, 8.690e-3
2444.000, 2.132e+1, 8.696e-3
2451.000, 2.138e+1, 8.683e-3
2458.000, 2.144e+1, 8.688e-3
2465.000, 2.151e+1, 8.710e-3
2472.000, 2.157e+1, 8.703e-3
2479.000, 2.163e+1, 8.693e-3
2486.000, 2.169e+1, 8.699e-3
2493.000, 2.175e+1, 8.697e-3
2500.000, 2.181e+1, 8.713e-3
2507.000, 2.187e+1, 8.672e-3
2514.000, 2.193e+1, 8.719e-3
2521.000, 2.199e+1, 8.710e-3
2528.000, 2.205e+1, 8.726e-3
2535.000, 2.211e+1, 8.729e-3
2542.000, 2.218e+1, 8.713e-3
2549.000, 2.224e+1, 8.717e-3
2556.000, 2.230e+1, 8.724e-3
2563.000, 2.236e+1, 8.710e-3
2570.000, 2.242e+1, 8.705e-3
2577.000, 2.248e+1, 8.705e-3
2584.000, 2.254e+1, 8.695e-3
2591.000, 2.260e+1, 8.715e-3
2598.000, 2.266e+1, 8.714e-3
2605.000, 2.272e+1, 8.706e-3
2612.000, 2.279e+1, 8.705e-3
2619.000, 2.285e+1, 8.705e-3
2626.000, 2.291e+1, 8.686e-3
2633.000, 2.297e+1, 8.691e-3
2640.000, 2.303e+1, 8.695e-3
2647.000, 2.309e+1, 8.682e-3
2654.000, 2.315e+1, 8.695e-3
2661.000, 2.321e+1, 8.699e-3
2668.000, 2.327e+1, 8.673e-3
2675.000, 2.333e+1, 8.693e-3
2682.000, 2.339e+1, 8.694e-3
2689.000, 2.345e+1, 8.699e-3
2696.000, 2.352e+1, 8.685e-3
2703.000, 2.358e+1, 8.677e-3
2710.000, 2.364e+1, 8.691e-3
2717.000, 2.370e+1, 8.670e-3
2724.000, 2.376e+1, 8.699e-3
2731.000, 2.382e+1, 8.686e-3
2738.000, 2.388e+1, 8.693e-3
2745.000, 2.394e+1, 8.676e-3
2752.000, 2.400e+1, 8.687e-3
2759.000, 2.406e+1, 8.679e-3
2766.000, 2.412e+1, 8.672e-3
2773.000, 2.418e+1, 8.655e-3
2780.000, 2.424e+1, 8.678e-3
2787.000, 2.431e+1, 8.676e-3
2794.000, 2.437e+1, 8.667e-3
2801.000, 2.443e+1, 8.680e-3
2808.000, 2.449e+1, 8.670e-3
2815.000, 2.455e+1, 8.677e-3
2822.000, 2.461e+1, 8.671e-3
2829.000, 2.467e+1, 8.681e-3
2836.000, 2.473e+1, 8.674e-3
2843.000, 2.479e+1, 8.662e-3
2850.000, 2.485e+1, 8.672e-3
2857.000, 2.491e+1, 8.668e-3
2864.000, 2.497e+1, 8.676e-3
2871.000, 2.503e+1, 8.672e-3
2878.000, 2.509e+1, 8.661e-3
2885.000, 2.515e+1, 8.662e-3
2892.000, 2.522e+1, 8.685e-3
2899.000, 2.528e+1, 8.671e-3
2906.000, 2.534e+1, 8.678e-3
2913.000, 2.540e+1, 8.662e-3
2920.000, 2.546e+1, 8.660e-3
2927.000, 2.552e+1, 8.672e-3
2934.000, 2.558e+1, 8.679e-3
2941.000, 2.564e+1, 8.666e-3
2948.000, 2.570e+1, 8.665e-3
2955.000, 2.576e+1, 8.670e-3
2962.000, 2.582e+1, 8.648e-3
2969.000, 2.588e+1, 8.673e-3
2976.000, 2.594e+1, 8.662e-3
2983.000, 2.600e+1, 8.655e-3
2990.000, 2.607e+1, 8.664e-3
2997.000, 2.613e+1, 8.657e-3
3004.000, 2.619e+1, 8.686e-3
3011.000, 2.625e+1, 8.669e-3
3018.000, 2.631e+1, 8.661e-3
3025.000, 2.637e+1, 8.680e-3
3032.000, 2.643e+1, 8.685e-3
3039.000, 2.649e+1, 8.656e-3
3046.000, 2.655e+1, 8.672e-3
3053.000, 2.661e+1, 8.677e-3
3060.000, 2.667e+1, 8.663e-3
3067.000, 2.673e+1, 8.680e-3
3074.000, 2.679e+1, 8.674e-3
3081.000, 2.685e+1, 8.670e-3
3088.000, 2.691e+1, 8.654e-3
3095.000, 2.698e+1, 8.649e-3
3102.000, 2.704e+1, 8.654e-3
3109.000, 2.710e+1, 8.657e-3
3116.000, 2.716e+1, 8.647e-3
3123.000, 2.722e+1, 8.631e-3
3130.000, 2.728e+1, 8.658e-3
3137.000, 2.734e+1, 8.653e-3
3144.000, 2.740e+1, 8.628e-3
3151.000, 2.746e+1, 8.665e-3
3158.000, 2.752e+1, 8.678e-3
3165.000, 2.758e+1, 8.641e-3
3172.000, 2.764e+1, 8.653e-3
3179.000, 2.770e+1, 8.649e-3
3186.000, 2.776e+1, 8.659e-3
3193.000, 2.782e+1, 8.651e-3
3200.000, 2.788e+1, 8.642e-3
3207.000, 2.794e+1, 8.644e-3
3214.000, 2.801e+1, 8.654e-3
3221.000, 2.807e+1, 8.647e-3
3228.000, 2.813e+1, 8.667e-3
3235.000, 2.819e+1, 8.659e-3
3242.000, 2.825e+1, 8.660e-3
3249.000, 2.831e+1, 8.655e-3
3256.000, 2.837e+1, 8.655e-3
3263.000, 2.843e+1, 8.657e-3
3270.000, 2.849e+1, 8.641e-3
3277.000, 2.855e+1, 8.656e-3
3284.000, 2.861e+1, 8.651e-3
3291.000, 2.867e+1, 8.651e-3
3298.000, 2.873e+1, 8.659e-3
3305.000, 2.879e+1, 8.662e-3
3312.000, 2.885e+1, 8.660e-3
3319.000, 2.891e+1, 8.669e-3
3326.000, 2.897e+1, 8.666e-3
3333.000, 2.904e+1, 8.673e-3
3340.000, 2.910e+1, 8.674e-3
3347.000, 2.916e+1, 8.668e-3
3354.000, 2.922e+1, 8.654e-3
3361.000, 2.928e+1, 8.660e-3
3368.000, 2.934e+1, 8.664e-3
3375.000, 2.940e+1, 8.674e-3
3382.000, 2.946e+1, 8.671e-3
3389.000, 2.952e+1, 8.659e-3
3396.000, 2.958e+1, 8.680e-3
3403.000, 2.964e+1, 8.675e-3
3410.000, 2.970e+1, 8.674e-3
3417.000, 2.976e+1, 8.677e-3
3424.000, 2.982e+1, 8.658e-3
3431.000, 2.988e+1, 8.665e-3
3438.000, 2.995e+1, 8.667e-3
3445.000, 3.001e+1, 8.679e-3
3452.000, 3.007e+1, 8.660e-3
3459.000, 3.013e+1, 8.665e-3
3466.000, 3.019e+1, 8.665e-3
3473.000, 3.025e+1, 8.658e-3
3480.000, 3.031e+1, 8.664e-3
3487.000, 3.037e+1, 8.669e-3
3494.000, 3.043e+1, 8.669e-3
3501.000, 3.049e+1, 8.669e-3
3508.000, 3.055e+1, 8.657e-3
3515.000, 3.061e+1, 8.664e-3
3522.000, 3.067e+1, 8.674e-3
3529.000, 3.073e+1, 8.683e-3
3536.000, 3.079e+1, 8.686e-3
3543.000, 3.086e+1, 8.699e-3
3550.000, 3.092e+1, 8.687e-3
3557.000, 3.098e+1, 8.713e-3
3564.000, 3.104e+1, 8.699e-3
3571.000, 3.110e+1, 8.707e-3
3578.000, 3.116e+1, 8.711e-3
3585.000, 3.122e+1, 8.692e-3
3592.000, 3.128e+1, 8.725e-3
3599.000, 3.134e+1, 8.702e-3
3606.000, 3.140e+1, 8.698e-3
3613.000, 3.146e+1, 8.692e-3
3620.000, 3.153e+1, 8.683e-3
3627.000, 3.159e+1, 8.691e-3
3634.000, 3.165e+1, 8.686e-3
3641.000, 3.171e+1, 8.682e-3
3648.000, 3.177e+1, 8.685e-3
3655.000, 3.183e+1, 8.667e-3
3662.000, 3.189e+1, 8.695e-3
3669.000, 3.195e+1, 8.681e-3
3676.000, 3.201e+1, 8.669e-3
3683.000, 3.207e+1, 8.683e-3
3690.000, 3.213e+1, 8.659e-3
3697.000, 3.219e+1, 8.663e-3
3704.000, 3.225e+1, 8.666e-3
3711.000, 3.232e+1, 8.666e-3
3718.000, 3.238e+1, 8.664e-3
3725.000, 3.244e+1, 8.668e-3
3732.000, 3.250e+1, 8.659e-3
3739.000, 3.256e+1, 8.646e-3
3746.000, 3.262e+1, 8.644e-3
3753.000, 3.268e+1, 8.646e-3
3760.000, 3.274e+1, 8.650e-3
3767.000, 3.280e+1, 8.637e-3
3774.000, 3.286e+1, 8.617e-3
3781.000, 3.292e+1, 8.604e-3
3788.000, 3.298e+1, 8.609e-3
3795.000, 3.304e+1, 8.614e-3
3802.000, 3.310e+1, 8.617e-3
3809.000, 3.316e+1, 8.607e-3
3816.000, 3.322e+1, 8.597e-3
3823.000, 3.328e+1, 8.620e-3
3830.000, 3.334e+1, 8.609e-3
3837.000, 3.340e+1, 8.615e-3
3844.000, 3.346e+1, 8.610e-3
3851.000, 3.352e+1, 8.614e-3
3858.000, 3.358e+1, 8.610e-3
3865.000, 3.364e+1, 8.600e-3
3872.000, 3.370e+1, 8.586e-3
3879.000, 3.376e+1, 8.611e-3
3886.000, 3.382e+1, 8.608e-3
3893.000, 3.388e+1, 8.599e-3
3900.000, 3.394e+1, 8.570e-3
3907.000, 3.400e+1, 8.586e-3
3914.000, 3.406e+1, 8.585e-3
3921.000, 3.412e+1, 8.587e-3
3928.000, 3.418e+1, 8.586e-3
3935.000, 3.424e+1, 8.590e-3
3942.000, 3.430e+1, 8.569e-3
3949.000, 3.436e+1, 8.596e-3
3956.000, 3.443e+1, 8.570e-3
3963.000, 3.449e+1, 8.588e-3
3970.000, 3.455e+1, 8.586e-3
3977.000, 3.461e+1, 8.577e-3
3984.000, 3.467e+1, 8.580e-3
3991.000, 3.473e+1, 8.577e-3
3998.000, 3.479e+1, 8.586e-3
4005.000, 3.485e+1, 8.566e-3
4012.000, 3.491e+1, 8.573e-3
4019.000, 3.497e+1, 8.583e-3
4026.000, 3.503e+1, 8.577e-3
4033.000, 3.509e+1, 8.587e-3
4040.000, 3.515e+1, 8.582e-3
4047.000, 3.521e+1, 8.575e-3
4054.000, 3.527e+1, 8.535e-3
4061.000, 3.533e+1, 8.561e-3
4068.000, 3.539e+1, 8.561e-3
4075.000, 3.545e+1, 8.541e-3
4082.000, 3.551e+1, 8.559e-3
4089.000, 3.557e+1, 8.563e-3
4096.000, 3.563e+1, 8.556e-3
4103.000, 3.569e+1, 8.572e-3
4110.000, 3.574e+1, 8.559e-3
4117.000, 3.580e+1, 8.531e-3
4124.000, 3.586e+1, 8.547e-3
4131.000, 3.592e+1, 8.550e-3
4138.000, 3.598e+1, 8.533e-3
4145.000, 3.604e+1, 8.530e-3
4152.000, 3.610e+1, 8.537e-3
4159.000, 3.616e+1, 8.508e-3
4166.000, 3.622e+1, 8.546e-3
4173.000, 3.628e+1, 8.505e-3
4180.000, 3.634e+1, 8.532e-3
4187.000, 3.640e+1, 8.530e-3
4194.000, 3.646e+1, 8.514e-3
4201.000, 3.652e+1, 8.530e-3
4208.000, 3.658e+1, 8.520e-3
4215.000, 3.664e+1, 8.511e-3
4222.000, 3.670e+1, 8.522e-3
4229.000, 3.676e+1, 8.504e-3
4236.000, 3.682e+1, 8.506e-3
4243.000, 3.688e+1, 8.514e-3
4250.000, 3.694e+1, 8.541e-3
4257.000, 3.700e+1, 8.472e-3
4264.000, 3.706e+1, 8.495e-3
4271.000, 3.712e+1, 8.490e-3
4278.000, 3.718e+1, 8.478e-3
4285.000, 3.724e+1, 8.499e-3
4292.000, 3.729e+1, 8.459e-3
4299.000, 3.735e+1, 8.487e-3
4306.000, 3.741e+1, 8.394e-3
4313.000, 3.747e+1, 8.451e-3
4320.000, 3.753e+1, 8.468e-3
4327.000, 3.759e+1, 8.412e-3
4334.000, 3.765e+1, 8.426e-3
4341.000, 3.771e+1, 8.335e-3
4348.000, 3.777e+1, 8.323e-3
4355.000, 3.782e+1, 8.326e-3
4362.000, 3.788e+1, 8.423e-3
4369.000, 3.794e+1, 8.274e-3
4376.000, 3.800e+1, 8.289e-3
4383.000, 3.806e+1, 8.298e-3
4390.000, 3.811e+1, 8.231e-3
4397.000, 3.817e+1, 8.233e-3
4404.000, 3.823e+1, 8.244e-3
4411.000, 3.829e+1, 8.190e-3
4418.000, 3.835e+1, 8.195e-3
4425.000, 3.840e+1, 8.181e-3
4432.000, 3.846e+1, 8.116e-3
4439.000, 3.852e+1, 8.082e-3
4446.000, 3.857e+1, 8.168e-3
4453.000, 3.863e+1, 8.184e-3
4460.000, 3.869e+1, 8.088e-3
4467.000, 3.874e+1, 8.033e-3
4474.000, 3.880e+1, 8.139e-3
4481.000, 3.886e+1, 8.088e-3
4488.000, 3.891e+1, 8.046e-3
4495.000, 3.897e+1, 8.019e-3
4502.000, 3.903e+1, 8.045e-3
4509.000, 3.908e+1, 7.978e-3
4516.000, 3.914e+1, 8.054e-3
4523.000, 3.919e+1, 8.009e-3
4530.000, 3.925e+1, 7.996e-3
4537.000, 3.931e+1, 7.957e-3
4544.000, 3.936e+1, 7.959e-3
4551.000, 3.942e+1, 7.979e-3
4558.000, 3.947e+1, 7.977e-3
4565.000, 3.953e+1, 7.976e-3
4572.000, 3.958e+1, 8.023e-3
4579.000, 3.964e+1, 7.968e-3
4586.000, 3.970e+1, 7.945e-3
4593.000, 3.975e+1, 7.904e-3
4600.000, 3.981e+1, 7.905e-3
4607.000, 3.986e+1, 7.876e-3
4614.000, 3.992e+1, 7.888e-3
4621.000, 3.997e+1, 7.898e-3
4628.000, 4.003e+1, 7.883e-3
4635.000, 4.008e+1, 7.909e-3
4642.000, 4.014e+1, 7.954e-3
4649.000, 4.019e+1, 7.856e-3
4656.000, 4.025e+1, 7.881e-3
4663.000, 4.030e+1, 7.838e-3
4670.000, 4.036e+1, 7.811e-3
4677.000, 4.041e+1, 7.848e-3
4684.000, 4.047e+1, 7.843e-3
4691.000, 4.052e+1, 7.822e-3
4698.000, 4.058e+1, 7.706e-3
4705.000, 4.063e+1, 7.812e-3
4712.000, 4.069e+1, 7.873e-3
4719.000, 4.074e+1, 7.801e-3
4726.000, 4.080e+1, 7.761e-3
4733.000, 4.085e+1, 7.758e-3
4740.000, 4.090e+1, 7.753e-3
4747.000, 4.096e+1, 7.714e-3
4754.000, 4.101e+1, 7.760e-3
4761.000, 4.107e+1, 7.724e-3
4768.000, 4.112e+1, 7.685e-3
4775.000, 4.117e+1, 7.714e-3
4782.000, 4.123e+1, 7.664e-3
4789.000, 4.128e+1, 7.668e-3
4796.000, 4.134e+1, 7.709e-3
4803.000, 4.139e+1, 7.625e-3
4810.000, 4.144e+1, 7.627e-3
4817.000, 4.150e+1, 7.639e-3
4824.000, 4.155e+1, 7.688e-3
4831.000, 4.160e+1, 7.609e-3
4838.000, 4.166e+1, 7.640e-3
4845.000, 4.171e+1, 7.620e-3
4852.000, 4.176e+1, 7.539e-3
4859.000, 4.182e+1, 7.659e-3
4866.000, 4.187e+1, 7.636e-3
4873.000, 4.192e+1, 7.585e-3
4880.000, 4.198e+1, 7.555e-3
4887.000, 4.203e+1, 7.549e-3
4894.000, 4.208e+1, 7.560e-3
4901.000, 4.214e+1, 7.578e-3
4908.000, 4.219e+1, 7.552e-3
4915.000, 4.224e+1, 7.559e-3
4922.000, 4.229e+1, 7.492e-3
4929.000, 4.235e+1, 7.521e-3
4936.000, 4.240e+1, 7.505e-3
4943.000, 4.245e+1, 7.504e-3
4950.000, 4.250e+1, 7.520e-3
4957.000, 4.256e+1, 7.504e-3
4964.000, 4.261e+1, 7.571e-3
4971.000, 4.266e+1, 7.557e-3
4978.000, 4.271e+1, 7.452e-3
4985.000, 4.277e+1, 7.449e-3
4992.000, 4.282e+1, 7.453e-3
4999.000, 4.287e+1, 7.525e-3
5006.000, 4.292e+1, 7.445e-3
5013.000, 4.298e+1, 7.417e-3
5020.000, 4.303e+1, 7.461e-3
5027.000, 4.308e+1, 7.490e-3
5034.000, 4.313e+1, 7.494e-3
5041.000, 4.318e+1, 7.542e-3
5048.000, 4.324e+1, 7.459e-3
5055.000, 4.329e+1, 7.418e-3
5062.000, 4.334e+1, 7.438e-3
5069.000, 4.339e+1, 7.393e-3
5076.000, 4.344e+1, 7.395e-3
5083.000, 4.349e+1, 7.278e-3
5090.000, 4.355e+1, 7.363e-3
5097.000, 4.360e+1, 7.322e-3
5104.000, 4.365e+1, 7.298e-3
5111.000, 4.370e+1, 7.290e-3
5118.000, 4.375e+1, 7.369e-3
5125.000, 4.380e+1, 7.255e-3
5132.000, 4.385e+1, 7.270e-3
5139.000, 4.390e+1, 7.143e-3
5146.000, 4.395e+1, 7.169e-3
5153.000, 4.400e+1, 7.171e-3
5160.000, 4.405e+1, 7.204e-3
5167.000, 4.410e+1, 7.167e-3
5174.000, 4.415e+1, 7.135e-3
5181.000, 4.421e+1, 7.197e-3
5188.000, 4.426e+1, 7.160e-3
5195.000, 4.431e+1, 7.132e-3
5202.000, 4.436e+1, 7.146e-3
5209.000, 4.441e+1, 7.150e-3
5216.000, 4.446e+1, 7.121e-3
5223.000, 4.451e+1, 7.141e-3
5230.000, 4.456e+1, 7.175e-3
5237.000, 4.461e+1, 7.129e-3
5244.000, 4.466e+1, 7.092e-3
5251.000, 4.470e+1, 7.163e-3
5258.000, 4.475e+1, 7.181e-3
5265.000, 4.480e+1, 7.115e-3
5272.000, 4.485e+1, 7.068e-3
5279.000, 4.490e+1, 7.070e-3
5286.000, 4.495e+1, 7.116e-3
5293.000, 4.500e+1, 7.123e-3
5300.000, 4.505e+1, 7.087e-3
5307.000, 4.510e+1, 7.131e-3
5314.000, 4.515e+1, 7.070e-3
5321.000, 4.520e+1, 7.076e-3
5328.000, 4.525e+1, 7.022e-3
5335.000, 4.530e+1, 7.108e-3
5342.000, 4.535e+1, 7.017e-3
5349.000, 4.540e+1, 7.081e-3
5356.000, 4.545e+1, 7.056e-3
5363.000, 4.550e+1, 6.974e-3
5370.000, 4.555e+1, 7.009e-3
5377.000, 4.560e+1, 7.028e-3
5384.000, 4.565e+1, 7.043e-3
5391.000, 4.570e+1, 7.069e-3
5398.000, 4.574e+1, 7.043e-3
5405.000, 4.579e+1, 6.981e-3
5412.000, 4.584e+1, 7.031e-3
5419.000, 4.589e+1, 6.998e-3
5426.000, 4.594e+1, 6.976e-3
5433.000, 4.599e+1, 6.953e-3
5440.000, 4.604e+1, 6.890e-3
5447.000, 4.609e+1, 6.912e-3
5454.000, 4.613e+1, 6.933e-3
5461.000, 4.618e+1, 6.954e-3
5468.000, 4.623e+1, 6.875e-3
5475.000, 4.628e+1, 6.884e-3
5482.000, 4.633e+1, 6.943e-3
5489.000, 4.638e+1, 6.966e-3
5496.000, 4.643e+1, 6.908e-3
5503.000, 4.647e+1, 6.980e-3
5510.000, 4.652e+1, 6.942e-3
5517.000, 4.657e+1, 6.911e-3
5524.000, 4.662e+1, 6.868e-3
5531.000, 4.667e+1, 6.924e-3
5538.000, 4.672e+1, 6.941e-3
5545.000, 4.676e+1, 6.897e-3
5552.000, 4.681e+1, 6.880e-3
5559.000, 4.686e+1, 6.825e-3
5566.000, 4.691e+1, 6.924e-3
5573.000, 4.696e+1, 6.814e-3
5580.000, 4.700e+1, 6.913e-3
5587.000, 4.705e+1, 6.857e-3
5594.000, 4.710e+1, 6.829e-3
5601.000, 4.715e+1, 6.832e-3
5608.000, 4.720e+1, 6.815e-3
5615.000, 4.724e+1, 6.826e-3
5622.000, 4.729e+1, 6.799e-3
5629.000, 4.734e+1, 6.807e-3
5636.000, 4.739e+1, 6.793e-3
5643.000, 4.743e+1, 6.784e-3
5650.000, 4.748e+1, 6.722e-3
5657.000, 4.753e+1, 6.697e-3
5664.000, 4.758e+1, 6.765e-3
5671.000, 4.762e+1, 6.813e-3
5678.000, 4.767e+1, 6.800e-3
5685.000, 4.772e+1, 6.762e-3
5692.000, 4.777e+1, 6.772e-3
5699.000, 4.781e+1, 6.839e-3
5706.000, 4.786e+1, 6.782e-3
5713.000, 4.791e+1, 6.844e-3
5720.000, 4.796e+1, 6.759e-3
5727.000, 4.800e+1, 6.807e-3
5734.000, 4.805e+1, 6.777e-3
5741.000, 4.810e+1, 6.745e-3
5748.000, 4.815e+1, 6.737e-3
5755.000, 4.819e+1, 6.762e-3
5762.000, 4.824e+1, 6.811e-3
5769.000, 4.829e+1, 6.742e-3
5776.000, 4.834e+1, 6.726e-3
5783.000, 4.838e+1, 6.690e-3
5790.000, 4.843e+1, 6.723e-3
5797.000, 4.848e+1, 6.745e-3
5804.000, 4.852e+1, 6.616e-3
5811.000, 4.857e+1, 6.682e-3
5818.000, 4.862e+1, 6.723e-3
5825.000, 4.866e+1, 6.685e-3
5832.000, 4.871e+1, 6.722e-3
5839.000, 4.876e+1, 6.700e-3
5846.000, 4.881e+1, 6.697e-3
5853.000, 4.885e+1, 6.723e-3
5860.000, 4.890e+1, 6.765e-3
5867.000, 4.895e+1, 6.739e-3
5874.000, 4.899e+1, 6.691e-3
5881.000, 4.904e+1, 6.645e-3
5888.000, 4.909e+1, 6.637e-3
5895.000, 4.913e+1, 6.649e-3
5902.000, 4.918e+1, 6.651e-3
5909.000, 4.923e+1, 6.608e-3
5916.000, 4.927e+1, 6.718e-3
5923.000, 4.932e+1, 6.538e-3
5930.000, 4.936e+1, 6.687e-3
5937.000, 4.941e+1, 6.603e-3
5944.000, 4.946e+1, 6.558e-3
5951.000, 4.950e+1, 6.524e-3
5958.000, 4.955e+1, 6.610e-3
5965.000, 4.959e+1, 6.571e-3
5972.000, 4.964e+1, 6.591e-3
5979.000, 4.969e+1, 6.611e-3
5986.000, 4.973e+1, 6.592e-3
5993.000, 4.978e+1, 6.606e-3
6000.000, 4.983e+1, 6.610e-3
6007.000, 4.987e+1, 6.558e-3
6014.000, 4.992e+1, 6.520e-3
6021.000, 4.996e+1, 6.489e-3
6028.000, 5.001e+1, 6.473e-3
6035.000, 5.005e+1, 6.509e-3
6042.000, 5.010e+1, 6.414e-3
6049.000, 5.014e+1, 6.490e-3
6056.000, 5.019e+1, 6.461e-3
6063.000, 5.023e+1, 6.495e-3
6070.000, 5.028e+1, 6.423e-3
6077.000, 5.032e+1, 6.383e-3
6084.000, 5.037e+1, 6.510e-3
6091.000, 5.041e+1, 6.481e-3
6098.000, 5.046e+1, 6.350e-3
6105.000, 5.050e+1, 6.385e-3
6112.000, 5.055e+1, 6.514e-3
6119.000, 5.059e+1, 6.424e-3
6126.000, 5.064e+1, 6.434e-3
6133.000, 5.068e+1, 6.422e-3
6140.000, 5.073e+1, 6.392e-3
6147.000, 5.077e+1, 6.392e-3
6154.000, 5.082e+1, 6.378e-3
6161.000, 5.086e+1, 6.384e-3
6168.000, 5.091e+1, 6.430e-3
6175.000, 5.095e+1, 6.315e-3
6182.000, 5.100e+1, 6.343e-3
6189.000, 5.104e+1, 6.352e-3
6196.000, 5.109e+1, 6.339e-3
6203.000, 5.113e+1, 6.400e-3
6210.000, 5.117e+1, 6.389e-3
6217.000, 5.122e+1, 6.404e-3
6224.000, 5.126e+1, 6.325e-3
6231.000, 5.131e+1, 6.349e-3
6238.000, 5.135e+1, 6.347e-3
6245.000, 5.140e+1, 6.316e-3
6252.000, 5.144e+1, 6.371e-3
6259.000, 5.149e+1, 6.286e-3
6266.000, 5.153e+1, 6.292e-3
6273.000, 5.157e+1, 6.306e-3
6280.000, 5.162e+1, 6.311e-3
6287.000, 5.166e+1, 6.362e-3
6294.000, 5.171e+1, 6.224e-3
6301.000, 5.175e+1, 6.317e-3
6308.000, 5.179e+1, 6.284e-3
6315.000, 5.184e+1, 6.275e-3
6322.000, 5.188e+1, 6.286e-3
6329.000, 5.193e+1, 6.321e-3
6336.000, 5.197e+1, 6.292e-3
6343.000, 5.201e+1, 6.257e-3
6350.000, 5.206e+1, 6.337e-3
6357.000, 5.210e+1, 6.278e-3
6364.000, 5.215e+1, 6.235e-3
6371.000, 5.219e+1, 6.245e-3
6378.000, 5.224e+1, 6.249e-3
6385.000, 5.228e+1, 6.309e-3
6392.000, 5.232e+1, 6.274e-3
6399.000, 5.237e+1, 6.223e-3
6406.000, 5.241e+1, 6.255e-3
6413.000, 5.245e+1, 6.249e-3
6420.000, 5.250e+1, 6.321e-3
6427.000, 5.254e+1, 6.277e-3
6434.000, 5.259e+1, 6.251e-3
6441.000, 5.263e+1, 6.274e-3
6448.000, 5.267e+1, 6.305e-3
6455.000, 5.272e+1, 6.230e-3
6462.000, 5.276e+1, 6.282e-3
6469.000, 5.280e+1, 6.218e-3
6476.000, 5.285e+1, 6.294e-3
6483.000, 5.289e+1, 6.245e-3
6490.000, 5.294e+1, 6.243e-3
6497.000, 5.298e+1, 6.235e-3
6504.000, 5.302e+1, 6.214e-3
6511.000, 5.307e+1, 6.251e-3
6518.000, 5.311e+1, 6.270e-3
6525.000, 5.315e+1, 6.269e-3
6532.000, 5.320e+1, 6.241e-3
6539.000, 5.324e+1, 6.192e-3
6546.000, 5.328e+1, 6.191e-3
6553.000, 5.333e+1, 6.241e-3
6560.000, 5.337e+1, 6.184e-3
6567.000, 5.341e+1, 6.211e-3
6574.000, 5.346e+1, 6.227e-3
6581.000, 5.350e+1, 6.203e-3
6588.000, 5.355e+1, 6.271e-3
6595.000, 5.359e+1, 6.216e-3
6602.000, 5.363e+1, 6.248e-3
6609.000, 5.368e+1, 6.150e-3
6616.000, 5.372e+1, 6.174e-3
6623.000, 5.376e+1, 6.167e-3
6630.000, 5.381e+1, 6.223e-3
6637.000, 5.385e+1, 6.179e-3
6644.000, 5.389e+1, 6.176e-3
6651.000, 5.394e+1, 6.171e-3
6658.000, 5.398e+1, 6.176e-3
6665.000, 5.402e+1, 6.154e-3
6672.000, 5.406e+1, 6.165e-3
6679.000, 5.411e+1, 6.219e-3
6686.000, 5.415e+1, 6.228e-3
6693.000, 5.420e+1, 6.201e-3
6700.000, 5.424e+1, 6.220e-3
6707.000, 5.428e+1, 6.150e-3
6714.000, 5.433e+1, 6.184e-3
6721.000, 5.437e+1, 6.229e-3
6728.000, 5.441e+1, 6.200e-3
6735.000, 5.446e+1, 6.156e-3
6742.000, 5.450e+1, 6.153e-3
6749.000, 5.454e+1, 6.178e-3
6756.000, 5.459e+1, 6.262e-3
6763.000, 5.463e+1, 6.191e-3
6770.000, 5.467e+1, 6.131e-3
6777.000, 5.471e+1, 6.154e-3
6784.000, 5.476e+1, 6.153e-3
6791.000, 5.480e+1, 6.102e-3
6798.000, 5.484e+1, 6.113e-3
6805.000, 5.489e+1, 6.167e-3
6812.000, 5.493e+1, 6.161e-3
6819.000, 5.497e+1, 6.160e-3
6826.000, 5.502e+1, 6.203e-3
6833.000, 5.506e+1, 6.112e-3
6840.000, 5.510e+1, 6.159e-3
6847.000, 5.514e+1, 6.170e-3
6854.000, 5.519e+1, 6.095e-3
6861.000, 5.523e+1, 6.149e-3
6868.000, 5.527e+1, 6.127e-3
6875.000, 5.532e+1, 6.081e-3
6882.000, 5.536e+1, 6.068e-3
6889.000, 5.540e+1, 6.093e-3
6896.000, 5.544e+1, 6.151e-3
6903.000, 5.549e+1, 6.154e-3
6910.000, 5.553e+1, 6.169e-3
6917.000, 5.557e+1, 6.136e-3
6924.000, 5.562e+1, 6.105e-3
6931.000, 5.566e+1, 6.101e-3
6938.000, 5.570e+1, 6.061e-3
6945.000, 5.574e+1, 6.121e-3
6952.000, 5.579e+1, 6.048e-3
6959.000, 5.583e+1, 6.036e-3
6966.000, 5.587e+1, 6.063e-3
6973.000, 5.591e+1, 6.096e-3
6980.000, 5.596e+1, 6.099e-3
6987.000, 5.600e+1, 6.075e-3
6994.000, 5.604e+1, 6.029e-3
7001.000, 5.608e+1, 6.117e-3
7008.000, 5.613e+1, 6.004e-3
7015.000, 5.617e+1, 6.026e-3
7022.000, 5.621e+1, 6.070e-3
7029.000, 5.625e+1, 6.098e-3
7036.000, 5.630e+1, 6.040e-3
7043.000, 5.634e+1, 6.092e-3
7050.000, 5.638e+1, 5.993e-3
7057.000, 5.642e+1, 6.050e-3
7064.000, 5.647e+1, 6.089e-3
7071.000, 5.651e+1, 6.049e-3
7078.000, 5.655e+1, 6.075e-3
7085.000, 5.659e+1, 6.036e-3
7092.000, 5.663e+1, 5.980e-3
7099.000, 5.668e+1, 6.026e-3
7106.000, 5.672e+1, 6.015e-3
7113.000, 5.676e+1, 6.041e-3
7120.000, 5.680e+1, 6.014e-3
7127.000, 5.685e+1, 6.073e-3
7134.000, 5.689e+1, 5.995e-3
7141.000, 5.693e+1, 5.974e-3
7148.000, 5.697e+1, 6.002e-3
7155.000, 5.701e+1, 6.033e-3
7162.000, 5.706e+1, 6.015e-3
7169.000, 5.710e+1, 6.019e-3
7176.000, 5.714e+1, 5.979e-3
7183.000, 5.718e+1, 5.961e-3
7190.000, 5.722e+1, 6.063e-3
7197.000, 5.727e+1, 6.035e-3
7204.000, 5.731e+1, 5.993e-3
7211.000, 5.735e+1, 5.975e-3
7218.000, 5.739e+1, 5.958e-3
7225.000, 5.743e+1, 6.068e-3
7232.000, 5.748e+1, 5.985e-3
7239.000, 5.752e+1, 5.942e-3
7246.000, 5.756e+1, 5.989e-3
7253.000, 5.760e+1, 5.959e-3
7260.000, 5.764e+1, 5.991e-3
7267.000, 5.769e+1, 5.935e-3
7274.000, 5.773e+1, 5.929e-3
7281.000, 5.777e+1, 5.906e-3
7288.000, 5.781e+1, 5.910e-3
7295.000, 5.785e+1, 5.879e-3
7302.000, 5.789e+1, 5.916e-3
7309.000, 5.793e+1, 5.921e-3
7316.000, 5.798e+1, 5.892e-3
7323.000, 5.802e+1, 5.872e-3
7330.000, 5.806e+1, 5.876e-3
7337.000, 5.810e+1, 5.867e-3
7344.000, 5.814e+1, 5.852e-3
7351.000, 5.818e+1, 5.807e-3
7358.000, 5.822e+1, 5.840e-3
7365.000, 5.826e+1, 5.808e-3
7372.000, 5.830e+1, 5.876e-3
7379.000, 5.834e+1, 5.882e-3
7386.000, 5.838e+1, 5.872e-3
7393.000, 5.843e+1, 5.867e-3
7400.000, 5.847e+1, 5.863e-3
7407.000, 5.851e+1, 5.819e-3
7414.000, 5.855e+1, 5.852e-3
7421.000, 5.859e+1, 5.809e-3
7428.000, 5.863e+1, 5.849e-3
7435.000, 5.867e+1, 5.855e-3
7442.000, 5.871e+1, 5.838e-3
7449.000, 5.875e+1, 5.881e-3
7456.000, 5.879e+1, 5.848e-3
7463.000, 5.883e+1, 5.794e-3
7470.000, 5.888e+1, 5.821e-3
7477.000, 5.892e+1, 5.831e-3
7484.000, 5.896e+1, 5.915e-3
7491.000, 5.900e+1, 5.889e-3
7498.000, 5.904e+1, 5.829e-3
7505.000, 5.908e+1, 5.853e-3
7512.000, 5.912e+1, 5.839e-3
7519.000, 5.916e+1, 5.793e-3
7526.000, 5.920e+1, 5.870e-3
7533.000, 5.924e+1, 5.810e-3
7540.000, 5.928e+1, 5.825e-3
7547.000, 5.932e+1, 5.822e-3
7554.000, 5.937e+1, 5.809e-3
7561.000, 5.941e+1, 5.868e-3
7568.000, 5.945e+1, 5.850e-3
7575.000, 5.949e+1, 5.796e-3
7582.000, 5.953e+1, 5.822e-3
7589.000, 5.957e+1, 5.814e-3
7596.000, 5.961e+1, 5.901e-3
7603.000, 5.965e+1, 5.844e-3
7610.000, 5.969e+1, 5.775e-3
7617.000, 5.973e+1, 5.931e-3
7624.000, 5.977e+1, 5.876e-3
7631.000, 5.982e+1, 5.822e-3
7638.000, 5.986e+1, 5.794e-3
7645.000, 5.990e+1, 5.776e-3
7652.000, 5.994e+1, 5.808e-3
7659.000, 5.998e+1, 5.830e-3
7666.000, 6.002e+1, 5.778e-3
7673.000, 6.006e+1, 5.733e-3
7680.000, 6.010e+1, 5.740e-3
7687.000, 6.014e+1, 5.809e-3
7694.000, 6.018e+1, 5.780e-3
7701.000, 6.022e+1, 5.818e-3
7708.000, 6.026e+1, 5.745e-3
7715.000, 6.030e+1, 5.812e-3
7722.000, 6.034e+1, 5.750e-3
7729.000, 6.038e+1, 5.750e-3
7736.000, 6.042e+1, 5.757e-3
7743.000, 6.046e+1, 5.804e-3
7750.000, 6.050e+1, 5.787e-3
7757.000, 6.054e+1, 5.718e-3
7764.000, 6.058e+1, 5.752e-3
7771.000, 6.063e+1, 5.787e-3
7778.000, 6.067e+1, 5.793e-3
7785.000, 6.071e+1, 5.760e-3
7792.000, 6.075e+1, 5.770e-3
7799.000, 6.079e+1, 5.782e-3
7806.000, 6.083e+1, 5.801e-3
7813.000, 6.087e+1, 5.768e-3
7820.000, 6.091e+1, 5.747e-3
7827.000, 6.095e+1, 5.771e-3
7834.000, 6.099e+1, 5.734e-3
7841.000, 6.103e+1, 5.773e-3
7848.000, 6.107e+1, 5.764e-3
7855.000, 6.111e+1, 5.777e-3
7862.000, 6.115e+1, 5.704e-3
7869.000, 6.119e+1, 5.767e-3
7876.000, 6.123e+1, 5.794e-3
7883.000, 6.127e+1, 5.750e-3
7890.000, 6.131e+1, 5.730e-3
7897.000, 6.135e+1, 5.721e-3
7904.000, 6.139e+1, 5.729e-3
7911.000, 6.143e+1, 5.741e-3
7918.000, 6.147e+1, 5.691e-3
7925.000, 6.151e+1, 5.758e-3
7932.000, 6.155e+1, 5.740e-3
7939.000, 6.159e+1, 5.798e-3
7946.000, 6.163e+1, 5.727e-3
7953.000, 6.167e+1, 5.685e-3
7960.000, 6.171e+1, 5.740e-3
7967.000, 6.175e+1, 5.746e-3
7974.000, 6.179e+1, 5.736e-3
7981.000, 6.183e+1, 5.704e-3
7988.000, 6.187e+1, 5.806e-3
7995.000, 6.191e+1, 5.725e-3
8002.000, 6.195e+1, 5.837e-3
8009.000, 6.199e+1, 5.747e-3
8016.000, 6.203e+1, 5.761e-3
8023.000, 6.207e+1, 5.747e-3
8030.000, 6.211e+1, 5.778e-3
8037.000, 6.216e+1, 5.803e-3
8044.000, 6.220e+1, 5.771e-3
8051.000, 6.224e+1, 5.773e-3
8058.000, 6.228e+1, 5.746e-3
8065.000, 6.232e+1, 5.772e-3
8072.000, 6.236e+1, 5.755e-3
8079.000, 6.240e+1, 5.740e-3
8086.000, 6.244e+1, 5.761e-3
8093.000, 6.248e+1, 5.756e-3
8100.000, 6.252e+1, 5.741e-3
8107.000, 6.256e+1, 5.734e-3
8114.000, 6.260e+1, 5.728e-3
8121.000, 6.264e+1, 5.771e-3
8128.000, 6.268e+1, 5.715e-3
8135.000, 6.272e+1, 5.742e-3
8142.000, 6.276e+1, 5.729e-3
8149.000, 6.280e+1, 5.699e-3
8156.000, 6.284e+1, 5.739e-3
8163.000, 6.288e+1, 5.713e-3
8170.000, 6.292e+1, 5.696e-3
8177.000, 6.296e+1, 5.738e-3
8184.000, 6.300e+1, 5.756e-3
8191.000, 6.304e+1, 5.716e-3
8198.000, 6.308e+1, 5.740e-3
8205.000, 6.312e+1, 5.709e-3
8212.000, 6.316e+1, 5.731e-3
8219.000, 6.320e+1, 5.736e-3
8226.000, 6.324e+1, 5.655e-3
8233.000, 6.328e+1, 5.703e-3
8240.000, 6.332e+1, 5.755e-3
8247.000, 6.336e+1, 5.757e-3
8254.000, 6.340e+1, 5.695e-3
8261.000, 6.344e+1, 5.720e-3
8268.000, 6.348e+1, 5.665e-3
8275.000, 6.352e+1, 5.725e-3
8282.000, 6.356e+1, 5.672e-3
8289.000, 6.360e+1, 5.684e-3
8296.000, 6.364e+1, 5.676e-3
8303.000, 6.368e+1, 5.701e-3
8310.000, 6.372e+1, 5.716e-3
8317.000, 6.376e+1, 5.653e-3
8324.000, 6.380e+1, 5.657e-3
8331.000, 6.384e+1, 5.723e-3
8338.000, 6.388e+1, 5.641e-3
8345.000, 6.392e+1, 5.710e-3
8352.000, 6.396e+1, 5.659e-3
8359.000, 6.400e+1, 5.665e-3
8366.000, 6.404e+1, 5.695e-3
8373.000, 6.408e+1, 5.632e-3
8380.000, 6.412e+1, 5.629e-3
8387.000, 6.416e+1, 5.675e-3
8394.000, 6.419e+1, 5.592e-3
8401.000, 6.423e+1, 5.677e-3
8408.000, 6.427e+1, 5.612e-3
8415.000, 6.431e+1, 5.612e-3
8422.000, 6.435e+1, 5.650e-3
8429.000, 6.439e+1, 5.697e-3
8436.000, 6.443e+1, 5.676e-3
8443.000, 6.447e+1, 5.639e-3
8450.000, 6.451e+1, 5.610e-3
8457.000, 6.455e+1, 5.572e-3
8464.000, 6.459e+1, 5.637e-3
8471.000, 6.463e+1, 5.609e-3
8478.000, 6.467e+1, 5.601e-3
8485.000, 6.471e+1, 5.650e-3
8492.000, 6.475e+1, 5.600e-3
8499.000, 6.479e+1, 5.664e-3
8506.000, 6.483e+1, 5.614e-3
8513.000, 6.487e+1, 5.626e-3
8520.000, 6.491e+1, 5.629e-3
8527.000, 6.494e+1, 5.621e-3
8534.000, 6.498e+1, 5.587e-3
8541.000, 6.502e+1, 5.662e-3
8548.000, 6.506e+1, 5.625e-3
8555.000, 6.510e+1, 5.656e-3
8562.000, 6.514e+1, 5.609e-3
8569.000, 6.518e+1, 5.636e-3
8576.000, 6.522e+1, 5.588e-3
8583.000, 6.526e+1, 5.555e-3
8590.000, 6.530e+1, 5.546e-3
8597.000, 6.534e+1, 5.536e-3
8604.000, 6.538e+1, 5.507e-3
8611.000, 6.541e+1, 5.506e-3
8618.000, 6.545e+1, 5.453e-3
8625.000, 6.549e+1, 5.449e-3
8632.000, 6.553e+1, 5.466e-3
8639.000, 6.557e+1, 5.513e-3
8646.000, 6.561e+1, 5.475e-3
8653.000, 6.564e+1, 5.550e-3
8660.000, 6.568e+1, 5.516e-3
8667.000, 6.572e+1, 5.556e-3
8674.000, 6.576e+1, 5.497e-3
8681.000, 6.580e+1, 5.536e-3
8688.000, 6.584e+1, 5.492e-3
8695.000, 6.588e+1, 5.493e-3
8702.000, 6.591e+1, 5.484e-3
8709.000, 6.595e+1, 5.483e-3
8716.000, 6.599e+1, 5.532e-3
8723.000, 6.603e+1, 5.524e-3
8730.000, 6.607e+1, 5.593e-3
8737.000, 6.611e+1, 5.528e-3
8744.000, 6.615e+1, 5.529e-3
8751.000, 6.619e+1, 5.486e-3
8758.000, 6.622e+1, 5.469e-3
8765.000, 6.626e+1, 5.539e-3
8772.000, 6.630e+1, 5.451e-3
8779.000, 6.634e+1, 5.504e-3
8786.000, 6.638e+1, 5.485e-3
8793.000, 6.642e+1, 5.474e-3
8800.000, 6.645e+1, 5.462e-3
8807.000, 6.649e+1, 5.479e-3
8814.000, 6.653e+1, 5.444e-3
8821.000, 6.657e+1, 5.456e-3
8828.000, 6.661e+1, 5.464e-3
8835.000, 6.665e+1, 5.448e-3
8842.000, 6.668e+1, 5.487e-3
8849.000, 6.672e+1, 5.487e-3
8856.000, 6.676e+1, 5.486e-3
8863.000, 6.680e+1, 5.483e-3
8870.000, 6.684e+1, 5.473e-3
8877.000, 6.688e+1, 5.471e-3
8884.000, 6.691e+1, 5.500e-3
8891.000, 6.695e+1, 5.508e-3
8898.000, 6.699e+1, 5.482e-3
8905.000, 6.703e+1, 5.531e-3
8912.000, 6.707e+1, 5.471e-3
8919.000, 6.711e+1, 5.506e-3
8926.000, 6.714e+1, 5.463e-3
8933.000, 6.718e+1, 5.459e-3
8940.000, 6.722e+1, 5.443e-3
8947.000, 6.726e+1, 5.455e-3
8954.000, 6.730e+1, 5.471e-3
8961.000, 6.734e+1, 5.481e-3
8968.000, 6.737e+1, 5.468e-3
8975.000, 6.741e+1, 5.467e-3
8982.000, 6.745e+1, 5.484e-3
8989.000, 6.749e+1, 5.489e-3
8996.000, 6.753e+1, 5.494e-3
9003.000, 6.757e+1, 5.535e-3
9010.000, 6.760e+1, 5.439e-3
9017.000, 6.764e+1, 5.458e-3
9024.000, 6.768e+1, 5.438e-3
9031.000, 6.772e+1, 5.457e-3
9038.000, 6.776e+1, 5.495e-3
9045.000, 6.780e+1, 5.466e-3
9052.000, 6.783e+1, 5.536e-3
9059.000, 6.787e+1, 5.441e-3
9066.000, 6.791e+1, 5.457e-3
9073.000, 6.795e+1, 5.394e-3
9080.000, 6.799e+1, 5.414e-3
9087.000, 6.803e+1, 5.401e-3
9094.000, 6.806e+1, 5.357e-3
9101.000, 6.810e+1, 5.457e-3
9108.000, 6.814e+1, 5.520e-3
9115.000, 6.818e+1, 5.463e-3
9122.000, 6.822e+1, 5.391e-3
9129.000, 6.825e+1, 5.445e-3
9136.000, 6.829e+1, 5.384e-3
9143.000, 6.833e+1, 5.458e-3
9150.000, 6.837e+1, 5.455e-3
9157.000, 6.841e+1, 5.438e-3
9164.000, 6.844e+1, 5.396e-3
9171.000, 6.848e+1, 5.470e-3
9178.000, 6.852e+1, 5.422e-3
9185.000, 6.856e+1, 5.431e-3
9192.000, 6.860e+1, 5.440e-3
9199.000, 6.863e+1, 5.435e-3
9206.000, 6.867e+1, 5.447e-3
9213.000, 6.871e+1, 5.385e-3
9220.000, 6.875e+1, 5.429e-3
9227.000, 6.879e+1, 5.445e-3
9234.000, 6.882e+1, 5.426e-3
9241.000, 6.886e+1, 5.393e-3
9248.000, 6.890e+1, 5.420e-3
9255.000, 6.894e+1, 5.401e-3
9262.000, 6.897e+1, 5.374e-3
9269.000, 6.901e+1, 5.369e-3
9276.000, 6.905e+1, 5.407e-3
9283.000, 6.909e+1, 5.365e-3
9290.000, 6.913e+1, 5.378e-3
9297.000, 6.916e+1, 5.451e-3
9304.000, 6.920e+1, 5.357e-3
9311.000, 6.924e+1, 5.333e-3
9318.000, 6.928e+1, 5.396e-3
9325.000, 6.931e+1, 5.360e-3
9332.000, 6.935e+1, 5.369e-3
9339.000, 6.939e+1, 5.337e-3
9346.000, 6.943e+1, 5.379e-3
9353.000, 6.946e+1, 5.386e-3
9360.000, 6.950e+1, 5.329e-3
9367.000, 6.954e+1, 5.373e-3
9374.000, 6.958e+1, 5.376e-3
9381.000, 6.961e+1, 5.341e-3
9388.000, 6.965e+1, 5.358e-3
9395.000, 6.969e+1, 5.358e-3
9402.000, 6.973e+1, 5.427e-3
9409.000, 6.977e+1, 5.458e-3
9416.000, 6.980e+1, 5.380e-3
9423.000, 6.984e+1, 5.351e-3
9430.000, 6.988e+1, 5.346e-3
9437.000, 6.992e+1, 5.371e-3
9444.000, 6.995e+1, 5.348e-3
9451.000, 6.999e+1, 5.370e-3
9458.000, 7.003e+1, 5.357e-3
9465.000, 7.007e+1, 5.309e-3
9472.000, 7.010e+1, 5.354e-3
9479.000, 7.014e+1, 5.309e-3
9486.000, 7.018e+1, 5.375e-3
9493.000, 7.021e+1, 5.344e-3
9500.000, 7.025e+1, 5.340e-3
9507.000, 7.029e+1, 5.348e-3
9514.000, 7.033e+1, 5.339e-3
9521.000, 7.036e+1, 5.334e-3
9528.000, 7.040e+1, 5.347e-3
9535.000, 7.044e+1, 5.326e-3
9542.000, 7.048e+1, 5.279e-3
9549.000, 7.051e+1, 5.343e-3
9556.000, 7.055e+1, 5.349e-3
9563.000, 7.059e+1, 5.320e-3
9570.000, 7.063e+1, 5.333e-3
9577.000, 7.066e+1, 5.340e-3
9584.000, 7.070e+1, 5.342e-3
9591.000, 7.074e+1, 5.306e-3
9598.000, 7.077e+1, 5.271e-3
9605.000, 7.081e+1, 5.349e-3
9612.000, 7.085e+1, 5.290e-3
9619.000, 7.089e+1, 5.307e-3
9626.000, 7.092e+1, 5.301e-3
9633.000, 7.096e+1, 5.276e-3
9640.000, 7.100e+1, 5.289e-3
9647.000, 7.103e+1, 5.313e-3
9654.000, 7.107e+1, 5.309e-3
9661.000, 7.111e+1, 5.261e-3
9668.000, 7.114e+1, 5.251e-3
9675.000, 7.118e+1, 5.255e-3
9682.000, 7.122e+1, 5.272e-3
9689.000, 7.126e+1, 5.240e-3
9696.000, 7.129e+1, 5.261e-3
9703.000, 7.133e+1, 5.296e-3
9710.000, 7.137e+1, 5.253e-3
9717.000, 7.140e+1, 5.264e-3
9724.000, 7.144e+1, 5.243e-3
9731.000, 7.148e+1, 5.247e-3
9738.000, 7.151e+1, 5.227e-3
9745.000, 7.155e+1, 5.272e-3
9752.000, 7.159e+1, 5.252e-3
9759.000, 7.162e+1, 5.254e-3
9766.000, 7.166e+1, 5.281e-3
9773.000, 7.170e+1, 5.246e-3
9780.000, 7.173e+1, 5.288e-3
9787.000, 7.177e+1, 5.285e-3
9794.000, 7.181e+1, 5.251e-3
9801.000, 7.184e+1, 5.220e-3
9808.000, 7.188e+1, 5.209e-3
9815.000, 7.192e+1, 5.246e-3
9822.000, 7.195e+1, 5.250e-3
9829.000, 7.199e+1, 5.290e-3
9836.000, 7.203e+1, 5.209e-3
9843.000, 7.206e+1, 5.182e-3
9850.000, 7.210e+1, 5.235e-3
9857.000, 7.214e+1, 5.218e-3
9864.000, 7.217e+1, 5.199e-3
9871.000, 7.221e+1, 5.218e-3
9878.000, 7.225e+1, 5.199e-3
9885.000, 7.228e+1, 5.211e-3
9892.000, 7.232e+1, 5.254e-3
9899.000, 7.236e+1, 5.239e-3
9906.000, 7.239e+1, 5.244e-3
9913.000, 7.243e+1, 5.234e-3
9920.000, 7.247e+1, 5.211e-3
9927.000, 7.250e+1, 5.164e-3
9934.000, 7.254e+1, 5.191e-3
9941.000, 7.258e+1, 5.174e-3
9948.000, 7.261e+1, 5.173e-3
9955.000, 7.265e+1, 5.186e-3
9962.000, 7.269e+1, 5.161e-3
9969.000, 7.272e+1, 5.196e-3
9976.000, 7.276e+1, 5.119e-3
9983.000, 7.279e+1, 5.115e-3
9990.000, 7.283e+1, 5.137e-3
9997.000, 7.287e+1, 5.118e-3
10004.000, 7.290e+1, 5.166e-3
10011.000, 7.294e+1, 5.108e-3
10018.000, 7.297e+1, 5.143e-3
10025.000, 7.301e+1, 5.110e-3
10032.000, 7.305e+1, 5.129e-3
10039.000, 7.308e+1, 5.139e-3
10043.000, 7.310e+1, 5.143e-3